aX,aY,aZ,gX,gY,gZ
2.879,-0.283,-0.09,-5.127,-45.776,-1.221
3.468,-0.372,0.041,-39.001,-91.003,-1.77
3.477,-0.305,0.289,-55.786,-108.154,-11.292
3.162,-0.106,0.8,-55.725,-100.586,-24.17
2.25,0.214,0.923,-57.007,-59.021,-51.147
0.877,0.547,0.746,-74.585,-27.039,-71.655
-0.449,0.844,0.424,-99.915,-32.959,-87.646
-1.759,0.916,0.506,-94.055,-69.458,-112.183
-2.176,0.709,0.974,-79.224,-104.797,-140.808
-2.381,0.269,1.245,-68.42,-105.469,-139.282
-2.362,0.125,1.549,-38.269,-57.312,-95.093
-2.363,0.336,1.47,1.953,-6.531,-42.114
-2.052,0.185,1.356,1.831,-25.024,-21.179
-1.245,-0.196,1.411,-22.095,-78.979,-23.987
-0.562,-0.429,1.429,-2.502,-48.096,-12.634
-0.268,-0.2,1.307,9.949,5.005,17.334
-0.233,0.009,1.235,11.23,27.649,30.09
-0.223,0.329,0.961,0.305,47.791,36.194
-0.075,0.347,0.812,-26.123,21.362,21.057
0.057,0.246,0.906,-32.166,-1.038,10.01
0.106,0.217,0.992,-26.306,-4.639,5.798
0.093,0.158,1.135,-12.207,-2.869,4.883
0.061,0.04,1.177,1.16,8.545,3.723
0.005,-0.017,1.119,11.292,20.752,8.911
-0.039,0.01,1.043,16.296,23.804,11.353
-0.068,0.042,0.909,25.696,15.442,8.606
0.012,0.055,0.987,27.222,-5.249,5.31
0.087,0.078,1.089,16.479,-6.104,6.836
0.112,0.071,1.129,10.132,-1.343,7.507
0.111,0.053,1.144,0.977,7.996,9.338
0.129,0.063,1.089,3.174,17.456,10.071
0.064,0.119,1.029,9.094,14.404,4.883
0.065,0.103,1.021,10.62,9.094,-1.221
0.084,0.047,1.009,7.812,-1.404,-7.202
0.095,0.003,1.012,6.409,-3.967,-8.118
0.087,-0.022,1.032,3.479,-2.319,-7.69
0.078,-0.038,1.039,-1.099,0.977,-4.944
0.059,-0.054,1.035,-1.526,2.563,-3.479
0.031,-0.048,1.026,1.404,5.31,-2.808
0.038,-0.063,1.01,2.258,4.517,-3.784
0.055,-0.052,1.006,0.061,3.113,-0.549
0.079,-0.032,1.027,-0.671,0.732,1.709
0.099,-0.015,1.038,-0.61,0.793,2.563
0.129,0.011,1.05,2.808,4.7,4.089
0.117,0.02,1.036,7.507,8.301,2.991
0.086,0.02,1.026,6.775,9.766,1.892
0.085,0.012,1.021,4.395,8.24,0.793
0.078,-0.027,1.014,2.747,4.761,-1.282
0.085,-0.047,1.01,3.662,2.563,-1.587
0.098,-0.042,0.995,4.15,2.869,0.427
0.091,-0.033,0.991,4.15,3.113,1.892
0.087,-0.018,0.984,3.479,2.014,3.235
0.089,-0.003,0.977,3.174,1.526,2.686
0.102,0.006,0.969,1.587,2.136,1.099
0.099,0.01,0.96,-0.305,2.625,0.732
0.092,0.005,0.943,-3.296,2.319,1.282
0.097,-0.007,0.945,-2.136,-0.122,1.038
0.119,0.007,0.985,2.258,-1.709,0.305
0.117,0.012,1.001,3.052,-1.587,-0.183
0.112,-0.017,1,2.136,0.549,-2.014
0.097,-0.041,1.005,3.174,0.122,-1.892
0.109,-0.045,1.021,5.798,-1.404,-0.305
0.122,-0.006,1.025,9.583,-0.916,0.671
0.122,0.009,1.021,10.498,-0.977,0.183
0.114,0.003,1.012,8.972,-2.686,-2.441
0.131,-0.019,1.021,5.371,-3.296,-2.991
0.129,0,1.026,2.441,-1.709,-1.892
0.133,0,1.028,1.221,-1.648,-3.113
0.131,-0.004,1.033,0.732,-1.465,-3.54
0.123,-0.02,1.05,0.366,-1.465,-3.967
0.117,-0.034,1.063,2.808,0.061,-4.15
0.095,-0.046,1.047,5.676,2.075,-4.578
0.076,-0.072,1.017,5.493,2.686,-4.456
0.079,-0.073,1.02,3.845,1.831,-2.686
0.096,-0.071,1.036,-0.488,1.465,-1.77
0.113,-0.056,1.037,-2.563,3.357,0.488
0.106,-0.048,1.007,-0.61,4.761,0.732
0.111,-0.048,0.992,2.319,3.845,-0.549
0.111,-0.047,0.992,1.77,1.709,-0.122
0.121,-0.037,0.998,-0.122,0.793,-0.183
0.112,-0.037,1.008,1.282,-1.038,-1.892
0.118,-0.06,1.013,3.845,-1.892,-2.869
0.116,-0.046,1.028,4.333,-1.831,-1.953
0.124,-0.029,1.03,0.916,0.366,-1.038
0.12,-0.03,1.016,0.183,2.808,-1.099
0.104,-0.042,0.99,2.686,2.258,-1.465
0.09,-0.055,0.971,7.507,-0.183,-1.587
0.099,-0.045,0.981,11.23,-2.991,-1.465
0.117,-0.031,1.006,8.301,-2.502,-1.404
0.123,-0.035,1.001,1.038,1.526,-0.488
0.111,-0.043,0.992,-0.977,3.54,-0.244
0.1,-0.053,0.97,-0.732,4.211,0.183
0.099,-0.044,0.964,2.197,2.014,-0.305
0.101,-0.039,0.981,1.709,-0.916,-0.977
0.101,-0.039,0.991,0.61,-2.441,-0.916
0.107,-0.056,1,-1.038,-3.662,-1.892
0.111,-0.063,1.012,-1.099,-3.418,-1.709
0.116,-0.044,1.013,-0.244,-1.343,-1.404
0.107,-0.04,1.005,0.061,-0.977,-2.014
0.101,-0.055,1.008,0.549,-1.587,-2.747
0.104,-0.064,1.014,0.244,-1.831,-1.709
0.098,-0.062,1.022,-0.793,-2.014,-0.549
0.091,-0.064,1.029,-0.732,-2.075,-0.427
0.091,-0.072,1.028,0.61,-1.77,-0.183
0.099,-0.057,1.021,1.831,-1.221,0.183
0.102,-0.039,1.015,5.005,-0.61,0
0.096,-0.036,1.008,4.211,0.122,-0.671
0.092,-0.053,1,1.404,-0.305,-0.549
0.091,-0.055,1.001,1.282,-1.892,-0.366
0.097,-0.06,1.011,3.113,-2.869,-0.916
0.101,-0.047,1.02,3.479,-2.258,-0.122
0.105,-0.037,1.018,3.052,-2.258,-0.366
0.101,-0.033,1.017,4.089,-2.38,-1.709
0.094,-0.037,1.019,3.357,-1.77,-2.686
0.092,-0.054,1.02,1.77,-1.465,-2.625
0.093,-0.057,1.028,0.061,-0.549,-1.282
0.092,-0.055,1.021,0.549,0.488,-1.221
0.083,-0.046,1.017,2.563,0.061,-1.587
0.089,-0.054,1.017,2.319,0,-2.625
1.553,-0.663,0.414,-33.569,-55.359,-32.715
1.932,-0.611,0.314,-41.565,-57.983,-33.569
2.494,-0.776,0.112,-74.219,-50.049,-63.843
2.759,-0.942,-0.085,-132.629,-40.894,-95.581
2.716,-0.969,-0.229,-184.021,-23.56,-109.07
2.486,-0.786,-0.385,-221.069,-0.854,-97.595
1.714,-0.186,-0.441,-243.53,-4.639,-83.008
0.598,0.557,-0.273,-264.526,-28.87,-101.257
-0.537,0.917,-0.02,-323.059,-47.058,-121.277
-1.724,1.243,0.304,-378.357,-62.805,-88.745
-2.532,1.397,0.796,-342.346,-79.102,-40.527
-2.799,1.401,1.536,-224.426,-116.089,32.471
-2.548,1.43,2.285,-130.371,-161.804,115.54
-1.604,0.982,2.828,-59.448,-149.902,106.628
-0.383,-0.353,2.745,-4.456,-46.57,31.494
-0.14,-0.926,2.24,-13.062,6.104,-20.63
-0.231,-0.176,0.416,-24.475,30.884,23.682
-0.369,0.358,0.152,-11.23,38.086,74.951
-0.122,0.873,0.55,35.828,15.747,64.819
0.13,0.702,0.966,31.799,-31.189,10.498
0.145,0.308,1.106,9.399,-17.456,-20.081
-0.054,0.138,1.094,5.005,6.958,-18.188
-0.156,-0.085,1.071,13.489,11.658,-15.259
-0.126,-0.173,0.959,27.588,11.841,-6.592
-0.139,-0.061,0.894,46.753,7.629,3.784
-0.11,0.061,0.969,50.659,-2.136,7.629
-0.029,0.102,1.009,45.715,-5.127,8.545
0.085,0.142,1.054,33.203,2.136,10.254
0.163,0.227,1.029,24.292,11.23,14.099
0.182,0.308,1.041,22.888,15.442,12.268
0.174,0.318,1.019,17.761,15.381,4.944
0.169,0.284,1.007,13.184,14.648,1.404
0.175,0.222,0.987,6.836,10.742,-3.174
0.159,0.177,1.002,8.423,1.709,-7.019
0.14,0.099,1.073,9.277,-2.93,-11.719
0.116,0.004,1.044,2.808,0.549,-10.864
0.095,-0.054,1,-3.54,6.409,-6.409
0.056,-0.062,0.974,-5.554,8.484,-1.953
0.057,-0.069,0.955,-2.319,6.042,1.526
0.088,-0.039,0.934,2.136,4.578,3.113
0.093,0.053,0.953,9.888,0.488,5.249
0.116,0.093,0.978,8.85,-1.221,3.967
0.114,0.07,0.991,1.221,-1.831,3.052
0.127,0.066,0.998,-2.686,-2.319,3.357
0.134,0.075,1.019,1.404,-2.502,2.563
0.144,0.092,1.022,3.113,-1.343,1.892
0.136,0.091,1.019,3.54,2.136,1.343
0.115,0.068,1.01,0.061,4.028,1.282
0.108,0.05,0.99,0.122,3.418,1.282
0.099,0.04,0.984,2.38,2.319,1.77
0.123,0.042,0.97,0.854,2.441,4.761
0.123,0.062,0.969,0.732,2.563,6.653
0.126,0.098,0.969,1.16,1.892,8.179
0.128,0.111,0.967,1.953,1.648,5.676
0.128,0.08,0.965,-0.122,2.808,3.296
0.13,0.079,0.967,-3.967,4.517,3.906
0.14,0.076,0.96,-3.418,5.432,3.235
0.14,0.082,0.94,0.549,6.165,1.038
0.124,0.091,0.944,3.357,2.625,-1.038
0.134,0.065,0.963,1.282,-0.488,-2.808
0.144,0.046,0.971,-0.183,-1.221,-2.258
0.139,0.058,0.986,2.258,-1.16,-1.343
0.144,0.062,1.027,3.906,-0.977,-2.075
0.136,0.067,1.009,3.662,-0.305,-2.38
0.136,0.056,1,1.831,0.366,-3.052
0.124,0.047,0.997,2.014,0.061,-2.869
0.117,0.041,0.997,3.174,-1.099,-3.235
0.135,0.037,0.991,4.456,-1.404,-2.319
0.126,0.065,1.007,6.836,-1.404,-1.587
0.135,0.058,1.024,2.441,0.427,-2.38
0.128,0.032,1.004,-2.38,2.808,-0.793
0.118,0.036,0.999,0.244,2.808,-1.099
0.123,0.043,0.996,2.991,1.953,-2.38
0.127,0.04,0.982,2.319,1.709,-1.831
0.123,0.051,0.975,1.099,1.831,-1.465
0.129,0.05,0.971,-0.366,0.732,-1.77
0.133,0.049,0.976,0.732,-0.305,-1.648
0.13,0.059,0.995,0.61,-0.305,-2.075
0.134,0.044,0.999,-0.366,-0.549,-2.502
0.132,0.042,0.992,1.831,-0.854,-2.563
0.127,0.037,0.991,3.174,-1.343,-2.991
0.09,0.035,1,2.991,-2.869,-2.686
0.155,0.037,1.011,4.028,-2.686,-2.93
0.146,0.04,1.025,3.967,-0.427,-2.075
0.127,0.024,1.013,1.831,2.502,-2.014
0.118,0.003,0.99,0.122,3.601,-1.221
0.115,0.007,0.982,0.061,2.808,-0.122
0.127,0.024,0.974,2.075,0.793,0
0.127,0.04,0.978,5.249,-0.916,-0.916
0.132,0.041,0.992,4.578,-2.319,-1.831
0.141,0.039,1.001,3.113,-1.831,-1.953
0.127,0.027,1,2.136,0,-2.197
0.121,0.018,0.997,-0.244,0.977,-1.526
0.121,0.011,0.995,-0.488,0.488,0.061
0.127,0.03,0.998,1.099,0.305,0.122
0.127,0.043,0.991,4.333,0.427,-0.793
0.117,0.036,0.969,4.761,0.488,-1.709
0.118,0.028,0.963,2.38,-0.061,-1.892
0.119,0.021,0.97,1.038,-0.305,-1.709
0.129,0.02,1.001,-1.709,-1.282,-0.488
0.137,0.027,1.031,-1.16,-0.854,0.427
0.139,0.021,1.019,1.648,1.953,0.488
0.118,0.022,0.987,4.639,2.93,0.488
0.064,0.031,0.974,5.615,2.197,0.488
0.151,0.028,0.982,4.7,2.197,0.183
0.122,0.048,0.989,1.526,0.305,1.282
0.123,0.045,0.982,0.793,0.366,-0.366
0.112,0.027,0.972,0.671,-0.305,-1.343
0.106,0.011,0.977,0.427,-1.099,-0.793
0.114,-0.001,0.993,0,-2.869,-0.122
0.12,-0.004,1.014,2.197,-3.113,0.916
0.125,0.002,1.025,4.883,-1.953,1.892
0.128,0.026,1.026,6.531,0.183,2.075
0.135,0.053,1,2.991,4.15,2.563
0.119,0.05,0.961,-0.61,4.639,1.953
0.123,0.033,0.961,0.549,0.244,-0.183
0.12,0.027,0.973,2.869,-2.38,-0.732
0.133,0.03,0.992,3.479,-2.747,-0.549
0.121,0.03,0.999,3.357,-1.221,-0.427
2.422,-0.643,-0.072,-13.367,-66.956,-56.091
2.968,-0.881,-0.12,-42.786,-52.673,-56.946
3.135,-0.799,-0.11,-97.229,-13.245,-12.939
3.069,-0.342,-0.043,-129.211,-13.428,11.719
2.647,0.057,0.129,-110.229,-35.522,-11.353
2.266,0.237,0.242,-103.149,-42.908,-51.025
1.25,0.564,0.392,-113.708,-36.804,-65.674
-0.113,0.756,0.363,-161.743,-25.085,-85.876
-1.09,0.762,0.308,-207.275,-54.016,-96.436
-2.047,0.564,0.674,-194.824,-121.216,-97.961
-2.445,0.407,1.296,-129.272,-159.546,-83.679
-2.399,0.525,1.81,-80.811,-131.409,-52.124
-2.379,0.453,2.181,-90.698,-87.463,-5.31
-1.557,0.064,2.167,-112.305,-55.542,-0.244
-0.759,-0.479,1.632,-71.716,-49.622,-23.804
-0.438,-0.685,1.011,26.489,-17.09,-43.152
-0.302,-0.242,0.646,68.359,6.409,-20.935
-0.215,0.266,0.759,27.832,7.629,25.635
0.008,0.427,0.907,-28.625,4.272,30.579
0.04,0.328,0.999,-46.204,5.249,12.085
0.077,0.253,1.016,-42.175,5.249,2.014
-0.001,0.147,0.991,-13.123,3.967,-11.169
-0.057,0.018,0.94,23.315,-2.502,-22.4
-0.075,-0.078,0.895,41.26,-9.46,-25.085
-0.062,-0.09,0.934,36.865,-13.245,-17.517
-0.041,-0.051,1.004,21.973,-14.832,-6.958
-0.024,-0.056,1.061,11.414,-11.23,-3.479
0.004,-0.054,1.061,9.583,-6.409,-1.526
0.034,-0.017,1.042,19.043,-2.747,-1.16
0.066,0.06,1.034,20.752,0.183,-0.122
0.065,0.083,1.031,15.686,1.343,0.61
0.053,0.081,1.026,1.038,2.075,-0.122
0.078,0.03,1.039,-7.935,-0.488,-3.662
0.076,0.007,1.055,-4.7,-2.808,-6.409
0.041,-0.046,1.051,-0.671,-3.845,-9.399
0.006,-0.105,1.071,0.732,-4.333,-9.033
0.011,-0.143,1.055,-1.648,-1.16,-5.981
-0.002,-0.132,1.018,-1.831,1.831,-0.854
0.007,-0.079,1.013,-3.845,2.686,3.479
0.018,-0.057,1.001,-3.845,1.648,5.554
0.033,-0.008,1.002,-3.113,0.793,3.845
0.048,-0.001,1.016,-4.456,-0.061,2.441
0.08,0,1.034,-4.822,-1.526,1.526
0.066,0.017,1.051,-1.16,-0.732,-15.442
0.022,-0.006,1.051,1.404,0.61,-2.502
0.05,-0.048,1.022,3.479,0.671,-3.54
0.052,-0.061,1.015,3.052,0.732,-2.686
0.047,-0.063,1.026,1.465,0.671,-2.258
0.069,-0.06,1.024,-4.333,3.113,0.061
0.077,-0.045,1.013,-3.967,4.7,1.77
0.063,-0.008,1,0,4.578,0
0.053,-0.018,1.008,2.808,3.418,-3.113
0.05,-0.036,0.995,0,2.563,-2.319
0.069,-0.046,0.992,1.343,2.197,-3.052
0.055,-0.045,0.99,0.427,1.587,-1.099
0.057,-0.011,0.999,2.014,0.854,0.244
0.057,-0.007,0.999,3.601,0.61,-0.549
0.06,-0.014,0.979,8.911,0.122,-3.418
0.054,-0.009,0.974,10.132,0.549,-4.883
0.055,-0.022,0.955,-0.366,2.319,-3.723
0.054,-0.026,0.95,-4.333,1.892,-2.563
0.052,-0.028,0.964,-2.991,1.221,-2.869
0.051,-0.042,0.993,0.244,-0.549,-4.456
0.064,-0.05,1,0.183,-0.366,-3.601
0.057,-0.041,1.003,2.197,0.183,-3.296
0.06,-0.041,1.016,2.563,0.061,-3.784
0.055,-0.046,1.015,0.122,-0.183,-3.54
0.048,-0.061,1.013,0.305,-0.244,-3.296
0.058,-0.061,1.011,1.77,0.244,-2.625
0.055,-0.058,1.008,1.038,1.831,-1.831
0.053,-0.042,1.003,-0.122,2.441,-0.671
0.053,-0.039,1.003,1.282,1.465,-1.648
0.057,-0.047,1.002,3.54,0.916,-2.869
0.058,-0.05,1.001,4.395,1.282,-2.686
0.049,-0.04,0.987,3.174,2.075,-1.343
0.049,-0.033,0.985,1.831,0.977,-1.404
0.049,-0.045,0.991,-0.122,-0.061,-2.136
0.051,-0.055,0.992,-2.747,-0.488,-1.587
0.056,-0.058,0.988,-2.075,-0.793,-1.282
0.053,-0.052,0.995,1.465,-2.136,-1.648
0.054,-0.054,1,1.77,-1.953,-1.77
0.052,-0.055,1.006,-1.16,-1.587,-1.038
0.056,-0.067,0.995,-1.648,-0.854,-0.854
0.047,-0.057,1,2.075,-0.916,-1.465
0.058,-0.059,0.999,2.258,-0.122,-1.526
0.053,-0.065,0.996,-1.892,1.526,0.61
0.048,-0.073,1.001,-4.15,1.221,2.686
0.047,-0.074,1.014,-0.732,0.488,3.296
0.054,-0.072,1.029,2.075,1.709,3.784
0.049,-0.069,1.032,1.892,2.686,4.333
0.11,-0.067,1.003,2.563,5.554,3.967
0.055,-0.048,0.99,5.493,5.798,4.822
0.059,-0.023,0.981,4.761,4.15,4.272
0.061,-0.02,0.982,3.296,3.235,3.418
0.075,-0.023,0.982,1.038,2.136,1.709
0.07,-0.022,0.981,-0.122,1.587,0.854
0.065,-0.038,0.985,-1.099,0.427,-0.427
0.067,-0.041,0.989,-1.587,0.366,-0.61
0.072,-0.045,0.999,-1.282,0.427,-0.183
0.07,-0.03,0.994,0.916,1.587,0
0.06,-0.024,0.978,1.953,1.709,-1.282
0.054,-0.03,0.968,0.244,1.221,-1.77
0.05,-0.034,0.974,-0.549,-1.16,-2.319
0.058,-0.049,0.993,-2.197,-1.831,-2.38
0.066,-0.042,1.005,-2.686,-1.709,-1.526
0.069,-0.039,1.009,-0.488,-0.549,-1.892
0.062,-0.031,1.003,1.587,0.305,-2.38
0.052,-0.035,1,0.244,0.244,-2.808
0.052,-0.039,1,-1.282,-0.305,-2.686
0.052,-0.048,1.001,-2.93,-0.549,-2.38
0.054,-0.048,1.004,-2.014,-1.038,-2.686
0.054,-0.047,1.02,0.671,-1.587,-3.174
0.069,-0.052,1.016,0.488,-0.305,-2.563
0.057,-0.05,1.001,1.038,1.831,-1.587
0.059,-0.045,0.995,1.282,1.465,-1.221
0.057,-0.043,0.995,1.16,0.732,-1.587
0.053,-0.042,1,-0.61,0.305,-1.465
0.057,-0.048,1.001,-2.197,-0.061,-1.282
0.068,-0.044,0.999,-0.427,0.366,-1.77
2.292,0.296,0.281,42.603,2.38,-11.108
2.554,0.289,0.322,17.578,-23.865,-29.846
2.734,-0.043,0.569,-11.108,-42.419,-52.185
2.418,-0.303,0.806,3.357,-24.902,-39.551
1.54,-0.35,0.776,104.675,10.803,-30.151
1.014,-0.31,0.686,255.798,35.156,-39.978
0.024,-0.089,0.351,313.843,34.546,-40.039
-1.122,0.032,0.081,390.869,-28.198,-64.819
-1.899,-0.094,0.226,513.184,-113.586,-170.776
-2.37,-0.551,0.558,573.181,-135.803,-258.118
-2.435,-1.213,1.021,411.987,-77.393,-222.595
-1.716,-1.725,1.156,69.58,22.644,-111.694
-1.153,-2.147,0.449,-127.808,90.576,-7.385
-1.03,-2.157,-0.191,-32.959,80.383,18.311
-0.73,-1.335,-0.104,92.224,14.771,1.038
-0.292,-0.67,0.325,73.486,-33.203,13.855
-0.005,-0.598,0.638,-19.104,-25.879,15.991
0.019,-0.803,0.653,-59.57,1.404,4.761
-0.057,-0.942,0.567,-33.997,18.555,-5.005
-0.075,-0.927,0.422,10.315,21.24,-7.69
-0.136,-0.902,0.364,25.269,15.015,-6.531
-0.152,-0.887,0.286,18.616,12.085,-2.991
-0.137,-0.864,0.261,-3.113,11.597,-2.625
-0.122,-0.876,0.272,-26.306,7.019,-0.61
-0.089,-0.859,0.346,-32.593,-0.671,-1.404
-0.031,-0.853,0.396,-22.827,-7.019,-5.676
0.002,-0.769,0.504,-18.677,-9.888,-6.897
0.014,-0.77,0.55,-36.499,-8.118,-5.737
0.04,-0.795,0.547,-43.701,-8.24,-4.395
0.025,-0.818,0.575,-40.039,-9.888,-6.348
0.055,-0.846,0.621,-27.954,-8.24,-13.306
0.033,-0.903,0.621,-16.418,-3.784,-15.625
0.007,-0.957,0.569,-11.536,4.456,-13.977
-0.034,-0.989,0.478,-13.245,11.536,-7.935
-0.07,-0.967,0.401,-11.841,13.123,-3.662
-0.07,-0.934,0.358,-9.155,9.277,-3.967
-0.078,-0.923,0.364,-5.127,-1.038,-3.906
-0.057,-0.895,0.418,-2.686,-7.935,-2.991
-0.044,-0.874,0.473,-2.319,-8.85,-3.296
-0.034,-0.855,0.494,-5.676,-7.019,-2.441
-0.023,-0.849,0.49,-9.399,-4.883,-3.052
-0.037,-0.856,0.497,-10.925,-6.653,-3.479
-0.025,-0.861,0.534,-5.92,-10.254,-5.066
-0.019,-0.893,0.565,1.343,-11.23,-7.996
-0.017,-0.912,0.572,2.075,-7.507,-6.836
-0.03,-0.915,0.568,-0.366,-2.258,-4.089
-0.043,-0.923,0.549,-2.197,2.075,-2.014
-0.052,-0.906,0.52,0.977,4.517,-1.099
-0.058,-0.879,0.51,5.737,2.563,-1.831
-0.065,-0.856,0.5,4.333,1.587,-1.77
-0.055,-0.842,0.509,0,0.305,-1.282
-0.049,-0.848,0.509,-2.93,-0.549,-2.258
-0.049,-0.844,0.507,-1.77,0.549,-2.869
-0.033,-0.833,0.508,-1.892,1.831,-3.723
-0.04,-0.83,0.505,-4.761,1.343,-3.418
-0.049,-0.852,0.514,-7.874,0.977,-4.089
-0.058,-0.866,0.511,-7.69,1.221,-4.761
-0.046,-0.871,0.515,-3.235,1.038,-5.188
-0.05,-0.869,0.509,0.366,1.221,-6.042
-0.056,-0.864,0.532,1.953,1.282,-5.249
-0.053,-0.865,0.51,-5.432,4.639,-4.089
-0.055,-0.878,0.502,-9.277,6.226,-2.808
-0.072,-0.868,0.504,-6.226,2.93,-2.991
-0.063,-0.869,0.527,-2.686,2.686,-5.066
-0.056,-0.872,0.552,-2.38,1.404,-4.272
-0.058,-0.889,0.539,-5.615,3.296,-4.089
-0.067,-0.912,0.526,-3.723,5.371,-3.601
-0.075,-0.922,0.526,0.732,4.15,-3.784
-0.068,-0.907,0.53,3.418,2.869,-2.93
-0.064,-0.881,0.531,3.845,1.77,-1.343
-0.065,-0.869,0.531,3.052,1.831,-0.977
-0.063,-0.865,0.529,0,1.831,-1.221
-0.064,-0.892,0.531,-2.136,2.014,-2.014
-0.068,-0.901,0.529,-2.075,2.014,-0.732
-0.061,-0.881,0.539,0.549,0.977,0.122
-0.052,-0.869,0.542,-0.61,1.709,0.183
-0.058,-0.869,0.533,-3.479,2.563,0.488
-0.059,-0.859,0.539,-3.54,2.075,-0.793
-0.048,-0.866,0.536,-4.639,2.563,-0.793
-0.056,-0.885,0.535,-4.272,2.747,-0.793
-0.056,-0.884,0.544,-2.197,2.319,-0.671
-0.05,-0.868,0.542,-2.014,3.601,0.122
-0.053,-0.856,0.54,0.793,4.272,-0.366
-0.055,-0.871,0.525,1.16,4.517,-1.282
-0.061,-0.872,0.511,0.793,4.639,-0.61
-0.065,-0.861,0.51,0.671,3.54,-0.305
-0.06,-0.855,0.518,-0.61,2.136,0.122
-0.057,-0.837,0.527,-1.282,1.099,0.549
-0.053,-0.829,0.525,1.77,0.671,-1.404
-0.045,-0.845,0.518,3.662,1.465,-3.479
-0.059,-0.872,0.527,2.075,0.854,-2.686
-0.056,-0.882,0.531,0.488,0.977,-2.197
-0.069,-0.881,0.532,-0.854,1.892,-1.038
-0.062,-0.88,0.514,-0.122,1.77,-0.671
-0.066,-0.879,0.524,1.526,-0.183,-1.343
-0.06,-0.886,0.53,-1.16,-0.366,-1.16
-0.067,-0.894,0.524,-0.549,-0.366,0.244
-0.062,-0.894,0.523,1.221,-0.671,0.183
-0.053,-0.877,0.536,3.845,-0.671,0.122
-0.052,-0.863,0.532,-0.427,0.366,1.648
-0.061,-0.859,0.537,-1.282,-0.183,1.587
-0.063,-0.865,0.536,0.854,-0.122,0.122
-0.071,-0.862,0.516,2.563,0.854,0.122
-0.071,-0.836,0.503,2.747,0.549,0.488
-0.068,-0.831,0.5,2.075,-0.061,-0.732
-0.054,-0.818,0.514,2.258,-2.502,-1.526
-0.041,-0.824,0.538,0.732,-3.052,-2.563
-0.051,-0.852,0.545,0.488,-1.648,-3.174
-0.057,-0.869,0.538,1.465,-0.305,-3.113
-0.056,-0.88,0.53,2.625,0.549,-2.808
-0.059,-0.876,0.523,1.404,0.427,-1.892
-0.063,-0.873,0.528,-0.488,0.488,-1.038
-0.064,-0.872,0.538,-0.183,-0.61,-1.099
-0.057,-0.872,0.551,1.038,-0.427,-2.136
-0.055,-0.873,0.542,0.427,1.038,-1.77
-0.068,-0.885,0.53,0.793,1.221,-1.953
-0.072,-0.891,0.531,1.892,0.916,-1.953
-0.073,-0.892,0.534,2.38,0.244,-2.075
-0.073,-0.897,0.535,2.319,0.427,-1.465
1.621,-1.054,-0.368,-40.283,8.179,-48.218
2.137,-1.096,-0.711,-100.83,-12.085,-59.143
2.246,-1.297,-0.945,-202.881,-36.743,-56.885
2.114,-1.52,-0.646,-322.571,-51.208,-42.053
2.119,-1.579,-0.3,-423.645,-17.517,-13.428
1.858,-1.271,0.105,-441.345,19.836,-3.967
1.193,-0.681,0.436,-411.255,61.523,-17.334
0.41,0.18,0.536,-399.841,110.901,-36.621
-0.439,0.585,0.532,-441.101,134.827,-52.49
-1.495,0.621,0.351,-484.253,88.928,-31.677
-2.142,0.591,0.512,-381.714,-43.152,-0.488
-2.13,0.777,1.125,-195.251,-135.193,33.02
-2.048,1,1.75,-72.021,-143.25,65.308
-1.687,1.003,2.136,-38.086,-104.98,64.27
-1.273,0.799,2.086,-42.664,-50.049,20.569
-0.56,0.022,1.76,-38.94,-3.54,-32.959
-0.281,-0.244,0.626,-9.277,31.006,-43.823
-0.277,-0.129,0.548,3.784,56.152,18.677
-0.247,0.169,0.756,-4.089,60.059,50.598
-0.072,0.342,0.884,-22.583,26.245,73.792
0.05,0.359,1.004,-15.015,22.827,58.655
0.061,0.292,1.033,1.831,30.457,43.091
0.014,0.232,0.996,14.587,35.095,36.072
-0.008,0.208,0.94,18.372,35.156,27.954
-0.046,0.135,0.843,24.17,29.541,22.522
-0.018,0.077,0.819,27.039,16.907,16.479
0.009,0.083,0.89,24.292,3.052,14.343
0.056,0.107,0.961,16.296,-3.601,13.672
0.11,0.128,0.973,12.39,-4.639,10.681
0.128,0.165,0.951,12.268,-3.357,8.057
0.138,0.198,0.927,11.963,-4.211,5.249
0.139,0.195,0.917,10.559,-6.653,-0.977
0.153,0.15,0.944,10.071,-9.766,-3.723
0.135,0.102,1.008,6.104,-17.334,-5.798
0.142,0.045,1.058,3.479,-18.005,-8.545
0.138,-0.021,1.069,5.127,-12.695,-8.667
0.144,-0.032,1.025,9.766,-3.235,-6.653
0.108,-0.032,0.99,10.132,3.357,-4.456
0.1,-0.027,0.97,5.188,5.127,-1.282
0.096,-0.023,0.943,-3.906,3.662,0.061
0.092,-0.025,0.95,-1.953,-0.916,0.366
0.118,-0.022,0.979,1.221,-4.639,0.977
0.123,0.002,1.009,3.113,-5.493,3.296
0.124,0.018,1.027,3.296,-2.197,0.427
0.136,-0.003,1.02,2.502,0.488,-1.221
0.129,-0.009,0.984,1.465,2.869,-0.244
0.129,-0.002,0.979,4.639,1.343,-0.305
0.143,0.015,1.003,4.822,0.183,0.122
0.149,0.011,1.014,1.526,0.671,2.075
0.145,0.007,1.002,-1.77,1.404,2.075
0.123,-0.002,0.999,3.479,2.136,0
0.135,-0.029,0.982,6.287,0.61,-1.404
0.139,0.001,0.98,10.559,-0.854,0.61
0.128,0.013,1,12.085,-0.916,-0.305
0.136,0.002,0.987,4.883,1.16,-0.183
0.131,0.006,0.959,0.793,1.587,1.587
0.136,0,0.97,3.418,-0.671,-0.854
0.14,-0.002,0.989,4.333,-2.075,-1.038
0.141,-0.005,0.989,4.15,-2.075,-0.549
0.167,-0.004,0.991,4.333,-1.038,-0.183
0.166,0.013,0.986,6.104,0.854,0.61
0.144,0.025,0.974,7.324,1.404,-0.305
0.142,0.003,0.954,5.188,1.16,-1.953
0.143,0.009,0.928,4.761,1.16,-1.343
0.124,0.015,0.944,3.967,-2.625,-2.563
0.133,-0.003,0.963,2.075,-4.822,-2.747
0.14,-0.004,0.992,-0.366,-7.263,-2.197
0.134,-0.014,0.995,2.441,-5.92,-3.174
0.13,-0.02,0.994,3.54,-5.31,-3.418
0.13,-0.017,1.004,2.686,-5.615,-2.625
0.127,-0.023,1.009,1.465,-3.723,-2.808
0.122,-0.031,1.001,0.732,-0.977,-1.953
0.116,-0.036,0.98,1.282,-0.427,-1.16
0.115,-0.03,0.989,0.671,-0.793,-0.61
0.129,-0.024,0.999,-1.77,-0.549,0.122
0.129,-0.025,1.001,-4.761,1.038,1.892
0.127,-0.018,0.998,-6.836,2.991,3.174
0.125,-0.014,0.981,-5.737,3.784,3.296
0.13,-0.002,0.963,-1.343,2.93,2.686
0.123,0.009,0.972,3.052,0.305,1.099
0.125,0.005,0.981,3.723,-2.808,-1.099
0.133,-0.008,1.002,2.808,-3.113,-1.282
0.139,-0.01,1.019,1.282,-2.075,-0.671
0.145,-0.008,1.029,1.953,-0.244,0
0.139,0.008,1.024,3.479,1.526,0
0.128,0.01,1.018,3.784,1.831,-0.854
0.12,-0.012,1.013,1.587,1.587,-1.892
0.121,-0.025,1.008,0.977,2.014,-1.404
0.127,-0.038,0.999,2.014,2.441,-0.305
0.132,-0.016,0.989,5.432,2.93,1.587
0.131,0,0.995,9.46,1.831,1.587
0.139,0.009,1.003,11.353,2.319,0.427
0.131,0.003,1.005,8.972,2.625,-0.61
0.128,-0.024,0.993,2.258,2.563,-0.793
0.145,-0.03,0.98,3.967,4.272,-2.991
0.118,-0.051,0.979,7.507,2.136,-2.808
0.122,-0.043,0.976,7.019,0.854,-2.258
0.113,-0.034,0.972,7.812,0,-2.502
0.123,-0.043,0.97,8.423,-1.343,-3.784
0.117,-0.037,0.989,5.676,-2.38,-3.54
0.128,-0.044,0.991,0.122,-2.38,-3.235
0.119,-0.04,0.99,-1.404,-2.075,-2.686
0.131,-0.037,0.995,1.465,-1.77,-4.517
0.132,-0.041,0.992,2.441,-2.686,-4.211
0.117,-0.043,0.989,2.075,-3.357,-3.784
0.11,-0.039,0.998,0.671,-4.089,-3.906
0.126,-0.05,0.986,-0.244,-3.906,-3.723
0.11,-0.033,0.993,1.892,-3.357,-3.052
0.116,-0.037,0.999,0.671,-3.296,-3.479
0.105,-0.042,0.996,-1.343,-1.648,-2.808
0.105,-0.058,0.986,-2.319,-0.366,-2.319
0.096,-0.047,0.99,-1.587,-0.854,-0.793
0.095,-0.053,0.993,1.282,-1.648,-2.258
0.11,-0.055,0.99,2.38,-1.343,-2.197
0.105,-0.045,0.98,3.052,-0.854,-1.099
0.089,-0.043,0.981,1.953,-0.671,-1.282
0.1,-0.053,0.976,-0.916,-1.709,-0.549
0.1,-0.045,0.982,0.061,-2.808,-0.427
0.118,-0.044,0.995,0.732,-3.235,-0.854
2.72,0.176,-0.109,0.061,-26.55,-8.179
3.577,-0.121,-0.434,-23.315,-39.307,-31.799
3.822,-0.362,-0.298,-72.449,-64.514,-52.429
3.618,-0.466,0.01,-105.957,-67.505,-81.97
3.279,-0.357,0.294,-102.539,-53.772,-102.966
1.345,0.21,0.417,-70.007,-29.114,-108.276
-0.388,0.791,0.52,-53.528,-34.241,-114.258
-1.563,0.986,0.565,-70.618,-54.077,-148.926
-2.636,0.748,1.04,-98.328,-79.163,-155.945
-2.952,0.535,1.623,-123.901,-88.501,-113.586
-2.938,0.401,2.192,-105.164,-63.599,-43.457
-2.437,0.245,2.146,-86.792,-28.503,19.287
-1.426,-0.232,1.898,-65.369,2.075,2.502
-0.964,-0.598,1.536,-39.612,8.118,-18.188
-0.444,-0.636,1.129,-7.141,33.264,-3.052
-0.239,-0.458,0.992,5.31,50.72,27.527
-0.105,-0.072,0.745,3.662,52.49,35.095
0.024,0.193,0.691,-2.014,44.983,38.574
0.017,0.281,0.729,-19.531,17.456,22.827
0.082,0.121,0.856,-29.663,-0.549,-2.869
0.084,-0.031,0.925,-23.987,-8.789,-13
0.08,-0.107,0.996,-9.46,-15.991,-14.832
0.072,-0.161,1.081,8.85,-13.916,-10.071
0.085,-0.147,1.093,13,-9.033,-6.226
0.065,-0.16,1.084,13.428,-0.366,1.404
0.044,-0.111,1.041,9.277,7.935,5.31
0.07,-0.123,0.959,10.315,10.437,0.244
0.129,-0.087,0.931,16.907,7.935,-0.793
0.148,-0.025,0.982,8.118,6.47,2.563
0.159,-0.011,1,-2.869,6.104,4.7
0.163,-0.037,1.002,-19.836,4.028,6.226
0.151,-0.052,1.008,-18.616,0.122,2.258
0.138,-0.116,0.98,-5.554,-1.099,-6.165
0.096,-0.169,0.966,5.127,-1.709,-10.498
0.069,-0.191,0.933,3.052,-2.197,-8.057
0.055,-0.207,0.919,-0.305,-4.517,-5.981
0.065,-0.217,0.932,0.366,-8.667,-2.991
0.049,-0.197,0.96,0.305,-12.207,0.427
0.092,-0.18,0.998,-1.038,-12.329,1.953
0.125,-0.157,0.999,-1.099,-8.667,5.554
0.153,-0.081,0.996,2.014,-5.249,7.263
0.158,-0.011,1.01,1.526,-6.348,6.958
0.157,-0.01,1.023,-2.441,-6.836,2.502
0.159,-0.074,1.021,-1.831,-7.141,-1.404
0.14,-0.099,1.031,2.625,-5.127,-2.258
0.126,-0.11,1.034,3.723,-3.052,-0.732
0.124,-0.11,1.025,5.432,-0.732,0.732
0.111,-0.094,0.994,7.874,0.916,0
0.094,-0.106,0.951,11.414,1.587,-0.427
0.092,-0.09,0.964,9.644,-0.977,0.671
0.1,-0.077,0.969,5.981,-2.686,1.16
0.118,-0.067,0.972,5.92,-3.845,-0.061
0.124,-0.05,0.972,4.944,-3.235,-1.404
0.117,-0.057,0.972,3.723,-3.357,-2.258
0.114,-0.068,0.988,0.427,-4.272,-2.869
0.11,-0.086,0.993,-1.526,-3.906,-3.235
0.109,-0.099,0.987,0.61,-2.869,-3.784
0.11,-0.1,0.975,3.418,-1.77,-3.54
0.1,-0.095,0.953,5.005,-0.977,-3.601
0.104,-0.094,0.958,3.357,-2.197,-2.747
0.105,-0.089,0.966,1.282,-3.357,-2.319
0.11,-0.097,0.98,0.183,-5.127,-2.808
0.117,-0.103,1,0.549,-4.028,-2.441
0.106,-0.099,1.002,1.16,-2.747,-1.221
0.103,-0.092,1.003,2.197,-1.343,-2.075
0.09,-0.1,0.998,0.854,-1.282,-4.089
0.094,-0.119,1,-0.916,-2.625,-4.456
0.101,-0.126,1.005,-0.61,-3.296,-4.15
0.099,-0.132,1.006,1.16,-3.479,-3.723
0.106,-0.119,1.014,2.563,-2.319,-3.418
0.103,-0.109,1.012,1.526,-0.183,-2.563
0.094,-0.111,1.013,0.793,0.549,-2.93
0.091,-0.113,1.006,0.916,1.038,-3.296
0.089,-0.119,0.999,1.16,1.221,-3.174
0.081,-0.123,1.001,1.77,-0.366,-4.15
0.086,-0.138,1.009,0.488,-0.061,-4.028
0.082,-0.151,1.011,-1.465,0.366,-2.441
0.089,-0.154,1.009,-1.709,0.61,-1.282
0.098,-0.126,0.999,2.502,0.122,0.183
0.095,-0.116,1.003,9.399,0.427,-2.136
0.09,-0.119,1.001,9.705,0.916,-2.93
0.081,-0.147,0.983,9.155,1.221,-2.93
0.078,-0.161,0.97,9.338,1.465,-2.38
0.088,-0.143,0.985,8.057,1.16,-0.732
0.103,-0.132,0.977,3.296,3.052,1.282
0.106,-0.102,0.959,5.615,3.54,0.61
0.089,-0.121,0.96,7.935,2.808,-0.61
0.092,-0.122,0.974,7.568,0.916,-2.625
0.104,-0.142,0.978,0.977,0.61,-2.502
0.101,-0.149,0.972,-0.183,1.038,-2.258
0.092,-0.16,0.977,2.991,0.122,-3.479
0.087,-0.159,0.985,1.465,-0.549,-2.686
0.089,-0.164,0.991,-0.122,-1.343,-2.441
0.107,-0.174,0.998,1.099,-1.465,-2.686
0.11,-0.157,1.001,2.136,0.122,-1.404
0.1,-0.15,1.001,1.709,0.916,-1.099
0.084,-0.155,0.994,-0.061,1.77,-0.977
0.085,-0.167,0.989,0.305,0.549,-1.16
0.084,-0.172,0.985,1.526,1.099,-1.343
0.077,-0.157,0.975,0.488,1.831,-0.122
0.074,-0.163,0.973,0.305,0.427,-0.549
0.076,-0.17,0.985,0.366,-0.854,-0.122
0.079,-0.165,1,0.732,-1.404,1.038
0.087,-0.162,1.008,1.343,-0.244,1.404
0.096,-0.153,1,1.709,1.16,2.136
0.086,-0.135,0.968,3.723,3.296,2.258
0.085,-0.122,0.955,3.052,2.136,1.709
0.082,-0.125,0.962,1.953,-0.244,0.732
0.084,-0.135,0.974,1.892,-2.563,0.244
0.087,-0.141,0.975,3.174,-3.418,-0.793
0.093,-0.145,0.985,6.714,-3.296,-0.977
0.086,-0.134,0.986,7.874,-2.563,-0.183
0.086,-0.132,0.996,5.371,-1.038,-0.183
0.087,-0.156,0.981,-0.61,1.038,0.977
0.081,-0.15,0.987,-1.343,0.244,2.441
0.085,-0.15,1.013,0.671,-1.465,1.526
0.089,-0.161,1.028,-0.61,-0.671,1.343
0.08,-0.166,1.018,0.183,1.465,1.77
0.075,-0.175,1.012,4.028,1.465,0.793
2.465,-0.735,-0.121,-0.61,-53.345,-29.541
2.769,-1.031,-0.156,-44.067,-71.899,-40.039
2.767,-1.295,0.056,-95.154,-78.43,-34.241
2.58,-1.355,0.328,-114.319,-66.772,-14.16
2.046,-1.003,0.409,-80.322,-47.546,-0.183
1.339,-0.402,0.38,-9.46,-23.987,-9.583
0.104,0.327,0.366,43.396,-7.08,-32.654
-0.704,0.62,0.319,27.649,-8.118,-65.308
-1.657,0.876,0.396,-33.325,-31.006,-81.543
-2.22,0.734,0.959,-152.466,-86.487,-101.318
-2.164,0.46,1.435,-217.041,-114.075,-78.918
-2.049,0.299,1.716,-188.538,-108.459,-24.719
-1.885,0.213,1.859,-116.15,-80.627,12.817
-1.335,-0.067,1.766,-57.007,-49.622,3.662
-0.731,-0.337,1.56,-32.715,-22.827,-18.372
-0.377,-0.418,1.216,-23.499,-4.272,-1.038
-0.197,-0.219,0.976,-21.851,17.761,37.354
-0.12,0.102,0.959,-18.188,27.954,65.674
-0.045,0.311,0.959,-23.865,23.254,64.636
0.07,0.346,0.938,-28.198,16.968,43.518
0.093,0.281,0.909,-16.418,9.705,22.217
0.052,0.155,0.903,6.836,1.465,1.404
0.032,0.082,0.931,20.081,-8.789,-10.071
0.025,-0.035,1.002,18.86,-12.024,-9.888
0.021,-0.076,1.013,11.047,-11.902,-2.197
0.01,-0.055,0.972,11.536,-7.324,1.587
0.029,-0.053,0.936,15.564,-4.822,-2.869
0.059,-0.044,0.958,8.728,-4.822,-1.953
0.055,-0.006,0.987,-6.104,-5.066,3.113
0.076,-0.022,1.017,-15.991,-5.615,1.282
0.091,-0.064,1.076,-17.822,-6.958,-1.587
0.103,-0.096,1.117,-13.855,-5.005,-2.869
0.093,-0.103,1.104,-6.348,0.671,-3.723
0.081,-0.129,1.046,-0.488,6.409,-5.188
0.038,-0.14,0.995,1.709,8.362,-3.906
0.026,-0.147,0.967,2.197,7.629,-3.418
0.027,-0.176,0.935,6.653,2.38,-3.601
0.045,-0.172,0.964,7.263,-2.258,-2.258
0.075,-0.148,0.988,0.549,-2.991,2.808
0.095,-0.11,0.992,-3.052,-1.77,7.446
0.097,-0.054,1.001,-5.31,-0.061,9.277
0.099,-0.051,1.001,-8.362,-0.183,5.676
0.097,-0.065,1.004,-8.362,-0.305,2.441
0.087,-0.096,1.001,-5.92,-0.305,0.61
0.098,-0.129,0.984,0.61,-0.366,-1.16
0.107,-0.12,0.975,5.981,0.366,-0.061
0.09,-0.076,0.994,4.395,0.183,3.357
0.085,-0.066,1.001,0.061,0.61,2.991
0.084,-0.076,0.996,-1.648,1.343,2.563
0.087,-0.087,0.975,-1.587,1.831,1.648
0.079,-0.097,0.977,0.427,1.892,0.854
0.085,-0.086,0.97,-0.183,1.221,2.441
0.088,-0.068,0.981,-0.061,0.366,1.892
0.094,-0.066,0.986,-0.854,-0.549,0
0.101,-0.069,0.994,-0.61,-1.16,-0.671
0.106,-0.077,1.001,-1.343,-0.488,-1.099
0.096,-0.089,0.993,-1.221,0.793,-0.854
0.074,-0.102,0.987,0.427,1.526,-1.221
0.065,-0.103,0.977,0.793,2.014,-0.305
0.062,-0.097,0.968,1.587,1.282,0.061
0.087,-0.088,0.963,1.953,0.183,1.038
0.091,-0.04,0.977,4.028,-1.587,0.366
0.095,-0.067,0.992,3.784,-1.831,-1.282
0.102,-0.08,0.999,-0.793,-1.831,-0.488
0.095,-0.072,0.996,-0.977,-0.916,-0.244
0.091,-0.083,0.996,1.221,-1.404,-1.648
0.079,-0.088,1.009,1.892,-2.258,-1.648
0.068,-0.107,1.009,0.061,-1.648,-1.465
0.078,-0.107,1.004,0.488,-2.014,-0.366
0.084,-0.099,1.007,2.319,-2.991,-0.244
0.089,-0.083,1.015,2.197,-2.808,-0.366
0.077,-0.088,1.018,1.953,-2.563,-0.732
0.077,-0.096,1.011,1.953,-2.014,-0.549
0.073,-0.08,1,4.272,-0.671,0.061
0.067,-0.073,0.991,4.456,0.061,-1.099
0.07,-0.088,0.982,-0.671,-0.427,-0.732
0.07,-0.081,0.987,-0.977,-1.526,-0.61
0.077,-0.086,1,0.793,-2.686,-1.282
0.089,-0.08,0.993,1.77,-1.221,-0.366
0.086,-0.074,0.987,3.174,0.977,-0.793
0.074,-0.076,0.984,2.502,0.977,-1.038
0.074,-0.082,0.985,0.488,0.183,-1.77
0.073,-0.107,0.986,0.427,0.061,-2.014
0.074,-0.106,0.995,1.953,-0.977,-1.404
0.078,-0.102,1.001,2.686,-0.916,-1.038
0.08,-0.089,1.005,3.601,-0.61,-0.793
0.084,-0.093,0.999,4.211,1.77,-0.793
0.078,-0.082,0.978,4.211,1.77,-0.427
0.075,-0.076,0.986,4.15,0.427,-1.892
0.075,-0.083,0.996,-0.793,-0.061,-2.075
0.078,-0.103,0.984,-2.38,0.183,-2.014
0.063,-0.097,1.008,1.648,-1.831,-2.686
0.079,-0.103,1.021,2.258,-1.038,-2.93
0.067,-0.089,1.01,2.502,2.136,-2.014
0.051,-0.101,0.979,-0.793,4.15,-1.953
0.063,-0.087,0.959,-0.549,2.258,-1.16
0.087,-0.065,0.975,3.479,-1.16,-2.502
0.079,-0.065,0.989,3.235,-1.648,-3.479
0.069,-0.067,0.991,1.282,-0.732,-3.479
0.075,-0.08,0.987,0.61,-0.122,-3.479
0.065,-0.079,0.98,1.221,0.366,-2.93
0.06,-0.072,0.98,2.441,-0.549,-3.906
0.057,-0.081,0.977,1.831,-0.854,-4.333
0.062,-0.083,0.977,1.099,-1.953,-4.333
0.069,-0.092,0.984,1.587,-2.319,-4.822
0.065,-0.101,0.992,0.488,-1.892,-4.517
0.067,-0.107,0.992,-0.366,-1.404,-4.456
0.069,-0.11,0.989,-0.427,-1.404,-4.089
0.07,-0.104,0.997,2.441,-1.892,-4.517
0.072,-0.113,0.997,3.662,-1.587,-4.761
0.061,-0.114,0.998,1.892,-1.343,-4.639
0.066,-0.135,1.01,-1.343,-1.16,-4.517
0.073,-0.148,1.016,-2.686,-1.282,-2.93
0.073,-0.133,1.011,2.258,-0.549,-2.869
0.075,-0.13,1.001,5.188,-0.427,-3.357
0.061,-0.115,1,8.118,-1.648,-3.662
0.062,-0.12,1.012,5.493,-2.075,-4.211
0.061,-0.142,1.013,0,-1.465,-3.357
0.063,-0.149,1.005,-0.366,-0.122,-2.502
1.301,-0.925,0.557,-10.071,-61.096,6.47
1.817,-1.24,0.376,-31.616,-74.158,5.432
2.128,-1.372,0.247,-33.691,-79.895,1.038
2.692,-1.538,-0.067,-20.386,-77.759,-4.944
2.844,-1.501,-0.222,-27.283,-59.082,11.23
2.547,-1.03,-0.081,-69.885,-31.677,40.466
1.569,-0.035,-0.011,-96.68,-17.212,48.95
0.558,0.717,0.182,-101.074,-24.353,15.32
-0.026,1.025,0.415,-110.168,-26.55,-24.17
-1.204,1.471,0.842,-188.782,-25.208,-44.495
-2.201,1.42,1.218,-267.578,-70.923,-69.824
-2.846,0.984,1.717,-241.577,-117.554,-83.191
-2.887,0.607,2.21,-124.146,-113.831,-80.139
-2.059,-0.166,2.438,-34.546,-64.209,-64.453
-0.978,-0.742,1.935,-7.263,1.831,-57.251
-0.566,-0.794,1.284,15.198,37.964,-21.79
-0.429,-0.118,0.758,21.667,47.974,32.349
-0.219,0.594,0.504,23.56,41.138,56.702
-0.04,0.696,0.631,4.822,21.423,46.57
-0.005,0.629,0.732,-14.038,7.446,30.945
0.029,0.364,0.868,-35.278,-2.686,0.549
-0.003,0.067,0.912,-22.461,-3.052,-18.005
-0.097,-0.088,0.885,8.057,-2.197,-24.963
-0.102,-0.187,0.867,26.978,-4.272,-23.376
-0.082,-0.213,0.879,19.348,-7.629,-10.498
-0.042,-0.18,0.903,7.324,-11.719,5.676
0.023,-0.09,0.955,4.15,-17.395,13.55
0.076,-0.036,1.043,7.751,-21.118,10.193
0.119,-0.03,1.083,7.385,-15.747,7.385
0.109,-0.011,1.086,1.526,-7.69,8.972
0.099,-0.025,1.077,-1.648,-3.601,9.521
0.115,-0.073,1.045,-8.789,1.953,10.498
0.094,-0.078,1.034,-10.132,1.648,13.55
0.082,-0.097,1.049,-6.531,-1.16,12.512
0.051,-0.107,1.048,-1.038,-2.258,9.644
0.053,-0.124,1.034,3.418,-1.709,6.287
0.059,-0.125,0.997,13.489,-1.221,5.249
0.069,-0.117,0.998,16.418,-1.831,6.042
0.071,-0.104,0.973,5.188,-0.244,12.268
0.053,-0.079,0.948,-2.319,1.709,17.395
0.075,-0.045,0.936,-4.7,1.282,15.991
0.077,-0.023,0.927,-3.723,-2.319,13.428
0.067,-0.014,0.944,-0.732,-5.859,9.399
0.076,-0.021,0.955,-0.793,-7.507,7.08
0.091,-0.048,0.965,-2.441,-9.583,5.066
0.081,-0.071,0.996,0,-10.62,2.991
0.09,-0.1,1.027,0.305,-10.62,3.296
0.088,-0.083,1.046,0.732,-10.01,6.714
0.099,-0.063,1.056,2.869,-6.287,7.263
0.102,-0.05,1.049,4.028,-3.967,7.019
0.077,-0.025,1.034,6.226,-0.61,5.981
0.078,-0.022,1.026,4.883,0.671,2.686
0.077,-0.027,1.014,-0.671,0.793,2.441
0.072,-0.037,0.99,-2.258,1.099,1.343
0.069,-0.036,0.987,0.244,-0.732,0.061
0.068,-0.042,0.994,1.038,-1.77,-0.793
0.068,-0.049,0.996,-0.671,-3.357,-0.549
0.074,-0.031,0.989,-1.404,-2.197,-0.427
0.055,-0.038,0.996,-1.648,-2.93,-1.953
0.071,-0.046,0.987,-2.441,-3.906,-2.258
0.056,-0.039,1.006,-2.075,-1.831,-2.136
0.053,-0.066,1.001,-7.446,-0.183,-1.77
0.052,-0.078,0.986,-7.629,0.122,-0.61
0.057,-0.067,1.018,-3.784,-1.038,0.305
0.069,-0.046,1.03,-2.197,-0.366,1.465
0.063,-0.026,1.023,-1.343,1.709,2.014
0.057,-0.021,1.007,-0.916,1.953,0.732
0.064,-0.023,1.001,0.305,0.61,-0.488
0.059,-0.013,1.002,2.625,-0.488,-1.648
0.059,-0.009,1.002,1.465,0.061,-2.869
0.05,-0.021,0.991,-0.732,-0.244,-2.93
0.045,-0.04,0.984,-3.906,-1.16,-3.418
0.052,-0.05,0.999,-5.371,-2.869,-3.113
0.064,-0.053,1.004,-3.723,-1.892,-2.808
0.064,-0.05,1.007,1.221,-0.061,-3.601
0.061,-0.053,1.006,1.282,0.854,-3.052
0.054,-0.059,1,-0.305,1.648,-1.831
0.056,-0.069,0.999,1.831,1.831,-2.014
0.058,-0.056,0.984,4.272,1.77,-1.282
0.052,-0.041,0.983,4.211,0.732,-1.282
0.062,-0.023,0.986,2.258,-0.061,-0.793
0.068,-0.032,0.989,3.54,-0.244,-2.38
0.068,-0.041,0.982,4.822,0.183,-2.93
0.06,-0.043,0.983,5.188,0.427,-3.174
0.062,-0.048,0.987,4.639,1.099,-3.052
0.06,-0.044,0.998,1.831,0.366,-2.563
0.065,-0.058,1.009,-1.038,-0.183,-2.747
0.07,-0.068,1.013,-0.977,0.244,-2.808
0.061,-0.062,1.001,1.709,1.648,-2.563
0.053,-0.063,0.997,3.845,1.099,-3.113
0.049,-0.075,1,3.967,0.122,-3.174
0.056,-0.081,1.021,2.686,-1.404,-3.418
0.062,-0.091,1.036,0,-0.61,-2.686
0.068,-0.09,1.028,-0.183,1.465,-1.099
0.054,-0.087,1.02,2.441,2.441,-1.099
0.051,-0.091,1.016,4.883,2.747,-1.465
0.056,-0.087,0.988,5.493,4.028,-0.732
0.038,-0.071,0.956,7.568,3.845,-0.61
0.036,-0.07,0.946,8.85,2.38,-1.16
0.048,-0.064,0.96,9.216,-1.221,-1.953
0.065,-0.068,1,4.517,-1.831,-1.404
0.059,-0.078,1.007,-1.648,0.916,0.549
0.048,-0.088,0.998,-0.305,3.174,1.16
0.04,-0.081,0.983,4.944,2.869,0.793
0.044,-0.072,0.975,6.592,1.648,0.183
0.043,-0.072,0.979,5.371,0.305,0.366
0.049,-0.078,0.991,0.916,0,0.732
0.058,-0.095,1.004,-1.16,-0.061,1.282
0.071,-0.087,1.005,1.038,1.404,2.136
0.062,-0.07,1.007,3.479,1.465,1.587
0.061,-0.074,1.013,2.258,0.793,0.61
0.062,-0.084,1.013,1.77,0.793,0.305
0.072,-0.089,1.008,3.235,1.282,-0.122
0.067,-0.08,1.023,2.808,0.61,0.61
0.073,-0.079,1.037,0.916,1.221,0.854
0.074,-0.078,1.02,0.305,3.418,1.282
0.075,-0.071,1.004,2.197,4.517,0.549
0.07,-0.065,0.99,3.113,3.784,-0.305
0.066,-0.068,1,2.563,1.709,-1.221
1.718,0.581,0.624,-60.974,-5.371,-88.013
1.827,0.578,0.614,-85.815,-10.437,-118.713
1.986,0.531,0.54,-103.088,-24.78,-158.813
2.027,0.362,0.537,-99.548,-37.17,-206.36
1.695,0.172,0.632,-94.788,-37.17,-226.44
1.103,-0.129,0.663,-91.064,-34.546,-252.014
0.294,-0.143,0.59,-74.829,-42.725,-257.812
-0.92,-0.021,0.705,-49.072,-65.369,-259.155
-1.49,0.052,1.089,-54.993,-67.444,-254.578
-2.231,0.188,1.46,-78.613,-36.072,-195.862
-2.536,0.384,1.614,-91.492,-23.01,-143.494
-2.185,0.005,1.894,-90.942,-61.34,-124.512
-1.486,-0.518,2.082,-91.553,-80.933,-85.388
-0.884,-0.882,1.785,-65.369,-29.175,-47.424
-0.412,-0.727,1.309,-34.241,39.917,-3.723
-0.204,-0.161,0.844,-20.63,64.941,38.696
-0.13,0.232,0.666,-9.766,53.162,39.856
-0.029,0.141,0.715,-12.756,39.368,14.282
-0.04,-0.057,0.683,-24.536,38.696,6.47
-0.053,-0.152,0.646,-16.968,35.583,5.615
-0.045,-0.172,0.765,4.456,16.907,3.235
-0.035,-0.193,0.871,16.785,1.709,1.648
-0.053,-0.206,0.898,16.357,-0.305,1.831
-0.057,-0.211,0.924,7.263,1.77,4.944
-0.03,-0.259,0.942,1.16,2.747,8.85
0.021,-0.243,0.965,3.662,4.089,16.479
0.058,-0.139,0.969,7.568,4.272,23.865
0.068,-0.021,0.933,9.705,4.761,23.682
0.068,0.026,0.888,7.507,2.808,16.602
0.068,0.019,0.889,-0.244,-2.625,7.568
0.089,-0.04,0.908,-4.761,-7.874,2.563
0.103,-0.086,0.96,-5.737,-9.644,0
0.095,-0.134,1.024,-2.686,-10.498,-3.418
0.098,-0.183,1.039,-3.601,-6.409,-3.418
0.072,-0.201,1.053,-4.822,0.061,-0.549
0.034,-0.187,1.036,-6.653,4.272,1.953
0.022,-0.187,1.025,-6.226,5.31,1.343
-0.01,-0.215,0.997,-5.737,5.615,-0.244
-0.016,-0.239,0.965,-8.484,4.517,2.625
0.014,-0.225,0.964,-6.836,1.099,6.226
0.057,-0.176,0.979,-1.892,-2.747,9.766
0.095,-0.116,1.002,2.075,-3.052,9.949
0.109,-0.094,1.007,1.892,-1.892,9.399
0.115,-0.073,1.011,-2.441,0.916,6.47
0.11,-0.098,1,-5.554,3.113,2.563
0.08,-0.141,0.982,-5.066,3.906,-0.671
0.058,-0.17,0.983,-5.859,1.953,-1.16
0.049,-0.192,1,-5.981,-1.831,-0.916
0.062,-0.197,1.02,-2.258,-4.333,-0.244
0.066,-0.169,1.024,3.723,-3.54,0.793
0.038,-0.153,1.016,5.127,-0.916,1.709
0.039,-0.156,1.009,3.54,-0.61,1.648
0.042,-0.18,0.993,2.93,-0.671,1.709
0.045,-0.176,0.96,6.714,-1.404,3.906
0.036,-0.129,0.939,13.794,-4.089,5.249
0.039,-0.111,0.941,17.7,-7.629,2.441
-0.013,-0.099,0.975,12.573,-8.057,0.061
0.08,-0.114,0.998,0.122,-5.432,-0.854
0.054,-0.131,0.992,-6.836,-3.54,0.183
0.047,-0.143,0.984,-5.676,-2.808,-0.671
0.04,-0.168,0.988,-1.953,-2.197,-2.38
0.036,-0.179,1.001,-1.587,-2.258,-1.892
0.052,-0.174,1.003,-2.38,-1.587,-0.793
-0.005,-0.167,1.006,-0.793,-1.953,-0.916
0.078,-0.167,1.022,1.343,0.366,-2.991
0.035,-0.169,1.01,1.648,-0.916,-1.77
0.032,-0.172,0.998,2.197,-0.305,-1.465
0.036,-0.179,0.99,3.052,-1.404,-1.831
0.028,-0.177,1.03,3.052,-3.845,-1.526
0.028,-0.183,1.016,2.93,-4.456,-1.831
0.042,-0.194,1.013,3.906,-3.479,-0.977
0.043,-0.157,1.006,6.592,-0.61,0.854
0.037,-0.138,0.996,5.493,0.732,0.305
0.037,-0.143,0.989,1.587,0.977,-0.793
0.037,-0.163,0.985,-0.061,0.793,-0.427
0.042,-0.169,0.991,0.305,0.427,0.061
0.046,-0.158,1,1.648,0.61,0.244
0.045,-0.141,0.99,2.075,1.648,0.061
0.043,-0.145,0.973,2.686,2.014,-1.221
0.039,-0.153,0.977,2.502,0.427,-1.892
0.041,-0.16,0.982,2.197,-0.549,-2.136
0.047,-0.17,0.998,1.709,-1.343,-1.709
0.046,-0.167,1.01,2.563,-0.977,-1.221
0.041,-0.164,1.006,3.113,0.305,-1.465
0.028,-0.182,1,3.54,1.343,-2.136
0.03,-0.192,0.99,1.648,1.099,-0.732
0.029,-0.183,0.99,4.089,-0.244,-0.732
0.038,-0.176,0.99,6.592,-0.366,-1.526
0.03,-0.175,0.985,8.667,-0.305,-2.441
0.025,-0.187,0.983,5.737,-0.183,-1.77
0.021,-0.206,0.99,1.831,-0.305,-0.916
0.026,-0.224,0.996,2.197,0.549,0.427
0.028,-0.209,0.992,6.165,1.282,1.282
0.034,-0.195,1.001,8.118,0.793,0.977
0.037,-0.197,1.001,6.958,0.854,0.793
0.04,-0.194,0.989,5.981,1.831,1.221
-0.043,-0.185,0.962,6.104,2.38,-14.343
0.06,-0.177,0.972,7.996,4.517,-1.587
0.037,-0.184,0.977,2.869,1.038,0.305
0.037,-0.2,0.995,-0.366,1.953,0.916
0.036,-0.205,0.998,0.854,1.77,1.221
0.039,-0.204,0.998,3.601,2.258,1.587
0.046,-0.201,0.996,4.089,2.563,1.404
0.037,-0.199,0.999,2.93,2.991,2.136
0.032,-0.217,0.994,2.869,2.808,1.953
0.017,-0.228,0.983,4.395,2.197,2.625
0.015,-0.235,0.976,5.615,1.465,2.625
0.014,-0.244,0.966,9.155,-0.305,3.479
0.033,-0.241,0.945,12.451,-1.77,5.127
0.034,-0.185,0.949,18.555,-3.296,6.165
0.049,-0.17,0.979,15.015,-3.784,4.333
0.058,-0.195,0.989,-0.061,-0.305,5.676
0.055,-0.216,0.967,-8.057,2.625,7.019
0.059,-0.205,0.956,-2.563,2.075,5.859
0.051,-0.202,0.974,3.357,-0.183,2.563
0.052,-0.209,0.994,1.648,-1.16,1.526
0.053,-0.214,0.998,-0.122,-1.221,1.343
0.056,-0.229,1.005,-0.916,-0.061,0.122
0.058,-0.234,1.001,0.793,1.709,0
1.92,-0.92,-0.236,9.766,-81.055,-35.156
2.241,-1.061,-0.186,-60.181,-90.82,-51.27
2.144,-1.207,-0.109,-187.378,-51.147,-36.438
2.002,-1.34,-0.06,-339.966,-0.305,-1.953
1.842,-1.232,0.089,-452.82,29.724,42.114
1.51,-0.797,0.342,-488.22,57.373,65.43
1.329,-0.622,0.461,-477.722,93.872,58.289
0.532,-0.176,0.577,-440.063,121.765,53.223
-0.642,0.221,0.422,-422.119,96.252,50.598
-1.499,0.554,0.704,-398.682,6.104,55.115
-1.701,0.805,1.208,-310.669,-69.336,43.701
-1.695,0.83,1.671,-177.979,-82.458,45.288
-1.687,0.838,1.993,-88.318,-60.425,82.458
-1.612,0.752,2.054,-75.317,-50.354,109.436
-0.982,0.404,1.848,-73.853,-45.898,65.491
-0.483,0.021,1.246,2.258,-11.719,-6.714
-0.304,-0.043,0.721,104.492,48.157,-49.5
-0.339,0.269,0.502,117.615,74.402,-18.738
-0.217,0.437,0.472,31.372,40.222,25.574
-0.028,0.478,0.512,-37.17,8.85,41.26
0.011,0.43,0.632,-19.714,-10.132,23.804
0.037,0.406,0.739,15.32,-24.597,0.61
0.101,0.352,0.929,24.17,-26.733,-5.798
0.12,0.299,0.965,25.574,-20.081,-13.611
0.091,0.199,0.898,24.536,-10.62,-20.874
0.083,0.1,0.877,26.428,-10.437,-23.071
0.084,0.072,0.941,19.897,-14.832,-14.587
0.128,0.097,0.985,12.573,-14.954,-6.042
0.161,0.186,0.969,11.292,-10.864,0.305
0.162,0.244,0.967,14.282,-8.118,-3.235
0.198,0.207,0.978,9.094,-8.118,-8.423
0.189,0.172,1.001,2.93,-7.812,-9.216
0.215,0.143,0.97,4.089,-5.554,-10.132
0.19,0.133,0.949,7.935,-4.517,-12.573
0.148,0.062,0.948,9.827,-7.446,-16.724
0.148,0.009,1.026,3.662,-16.541,-13.733
0.144,-0.007,1.101,-2.38,-16.357,-6.714
0.167,0.007,1.089,-2.93,-8.667,-1.648
0.147,0.045,1.028,5.493,0.488,-0.122
0.121,0.067,0.962,12.329,1.465,-2.075
0.129,0.068,0.982,15.442,-4.517,-3.845
0.157,0.073,1.008,10.498,-7.263,-3.418
0.158,0.071,1.015,3.967,-6.836,-2.502
0.157,0.057,1.022,1.77,-7.019,-1.77
0.168,0.053,1.027,0.854,-7.446,-0.732
0.176,0.055,1.027,4.639,-6.775,0.244
0.161,0.073,1.028,10.864,-4.578,1.16
0.162,0.085,1.007,13.062,-2.808,-0.366
0.15,0.101,1,15.076,-1.038,-1.892
0.135,0.072,0.983,6.775,-0.61,-2.197
0.182,0.058,0.994,3.479,0,-2.991
0.158,0.055,0.987,1.404,-1.282,-0.183
0.152,0.093,0.98,2.991,-0.366,1.526
0.146,0.098,0.985,4.089,-0.549,-0.183
0.155,0.089,0.988,5.127,-1.465,-0.732
0.143,0.109,0.969,9.155,-2.014,-1.831
0.097,0.097,0.988,11.963,-3.418,-5.127
0.154,0.068,0.986,7.629,-3.54,-5.615
0.131,0.051,1.002,5.31,-3.906,-4.883
0.143,0.041,0.992,-1.282,-1.038,-2.625
0.124,0.074,0.973,0.549,-0.305,-0.427
0.124,0.074,0.962,2.502,-0.305,-2.441
0.123,0.065,0.964,1.099,-1.892,-2.38
0.118,0.049,0.974,1.221,-3.845,-2.625
0.13,0.045,0.99,2.319,-4.089,-1.831
0.138,0.071,1.007,5.066,-2.319,-1.465
0.13,0.069,1.002,1.16,0.183,-0.793
0.157,0.041,0.99,-0.427,1.892,-2.258
0.134,0.036,0.982,1.16,0.916,-2.38
0.126,0.054,0.985,5.31,-1.282,-1.77
0.123,0.064,1.009,5.798,-3.235,-2.563
0.138,0.049,0.998,2.014,-2.258,-2.319
0.117,0.064,0.982,3.54,-3.296,-2.014
0.117,0.059,0.99,7.202,-6.348,-4.517
0.132,0.056,1.011,6.897,-6.836,-4.089
0.128,0.046,1.027,5.005,-4.7,-4.15
0.136,0.019,1.021,1.892,-1.648,-2.869
0.12,0.044,1.018,2.014,0.061,-0.854
0.123,0.051,1.014,3.357,0.671,-1.404
0.124,0.052,0.997,5.737,1.282,-2.686
0.11,0.045,0.978,6.348,1.831,-3.662
0.116,0.036,0.97,2.869,0.977,-3.174
0.114,0.05,0.964,0.427,0.977,-2.014
0.115,0.053,0.961,1.16,0.793,-2.686
0.107,0.043,0.956,1.648,-0.122,-3.784
0.102,0.031,0.961,-1.953,-1.404,-2.991
0.121,0.021,0.983,-1.892,-2.502,-2.441
0.114,0.027,1.001,-0.305,-2.441,-2.014
0.123,0.027,1.002,-0.427,-2.014,-2.38
0.122,0.026,1.005,-0.854,-0.549,-2.075
0.123,0.024,1.003,-1.343,0,-1.404
0.12,0.023,1.006,-1.587,0.122,-1.221
0.121,0.031,1,0.427,0.916,-1.099
0.118,0.024,0.988,2.502,1.465,-1.221
0.11,0.017,0.976,2.747,1.709,-1.404
0.109,0.021,0.973,4.761,0.977,-1.526
0.127,0.033,0.979,2.747,0,-0.305
0.113,0.049,0.983,0.549,0.427,-0.244
0.113,0.039,0.975,-0.488,1.404,-1.648
0.11,0.032,0.949,-0.183,0.916,-1.648
0.098,0.025,0.956,1.16,-1.282,-2.014
0.107,0.023,0.983,-0.122,-3.723,-1.892
0.109,0.013,1.002,-0.488,-4.883,-1.709
0.115,0.014,1.009,0.061,-4.272,-1.099
0.116,0.014,1.01,2.258,-2.991,-1.221
0.12,0.009,1.011,3.174,-1.526,-1.404
0.109,0.014,1,2.563,-0.122,-0.122
0.11,0.03,0.994,1.831,-0.122,0.366
0.109,0.033,1.001,2.502,-1.587,-0.61
0.116,0.03,1.01,2.808,-1.892,-1.16
0.115,0.027,1.009,1.953,-0.549,-0.732
0.115,0.029,0.998,1.831,0.427,-0.366
0.109,0.037,0.993,2.197,0.366,-0.793
0.113,0.044,0.998,1.892,0.244,-0.916
0.112,0.049,0.99,2.502,1.038,-1.282
0.108,0.055,0.982,2.197,1.526,-1.526
0.134,0.043,0.991,1.526,1.648,-3.845
0.112,0.031,0.989,-0.427,-0.305,-2.747
0.103,0.019,0.986,-0.427,-0.854,-2.625
