aX,aY,aZ,gX,gY,gZ
1.388,1.268,0.426,-12.756,49.622,41.748
1.484,1.498,0.46,-35.4,67.505,11.108
1.517,1.574,0.394,-62.927,96.619,-84.412
1.362,1.301,0.311,-52.979,109.558,-184.265
1.231,1.035,0.314,-41.809,120.85,-249.329
0.987,0.42,0.22,-36.255,130.615,-256.775
0.543,-0.195,0.006,-56.885,149.048,-234.192
-0.074,-1.123,-0.427,-110.84,147.644,-187.5
-0.416,-1.703,-0.692,-146.423,126.709,-153.992
-0.654,-2.825,-1.264,-192.078,47.729,-57.983
-0.644,-3.221,-1.284,-150.024,-41.931,78.979
-0.498,-2.567,-0.76,-25.208,-83.313,173.889
-0.301,-2.095,-0.488,40.894,-94.177,196.594
0.198,-1.104,-0.083,137.207,-112.183,236.755
0.672,0.282,0.493,155.518,-119.019,296.692
0.876,1.067,0.834,134.766,-106.079,308.35
1.569,2.451,1.094,32.043,-37.292,249.207
2.071,3.171,0.811,-24.475,35.522,107.483
2.166,3.289,0.609,-14.099,58.594,18.25
2.109,2.919,0.415,25.757,87.83,-156.311
1.939,2.488,0.344,23.743,100.769,-250.61
1.365,1.496,0.225,-32.776,124.634,-264.16
0.611,0.426,0.04,-100.708,134.338,-263.062
0.26,-0.198,-0.047,-131.226,104.126,-248.169
-0.563,-1.686,-0.501,-138.611,85.266,-227.783
-0.733,-3.43,-1.036,-151.55,49.133,-109.07
-0.721,-3.811,-1.073,-137.268,-38.696,72.144
-0.658,-3.5,-0.816,-91.003,-66.406,180.115
-0.335,-2.447,-0.338,42.847,-68.298,201.721
0.049,-1.276,0.039,128.357,-87.769,241.516
0.628,0.142,0.495,131.836,-96.619,276.855
0.906,0.915,0.701,114.38,-83.557,283.691
1.536,2.225,0.879,58.899,-25.513,242.065
1.821,2.749,0.804,31.433,7.568,190.552
2.116,3.266,0.486,6.409,66.467,47.668
2.133,3.246,0.311,5.066,103.027,-97.9
1.844,2.771,0.123,-7.935,112.244,-158.264
1.227,1.771,0.006,-62.256,120.789,-245.544
0.882,1.222,-0.022,-83.252,119.995,-296.204
0.128,-0.061,-0.06,-92.773,114.441,-312.195
-0.764,-1.726,-0.344,-102.173,93.811,-296.936
-0.987,-3.586,-1.076,-126.648,75.439,-157.898
-1.006,-4,-1.286,-130.981,38.513,-43.152
-1.049,-3.724,-1.143,-79.224,-45.898,140.381
-0.592,-2.503,-0.57,54.382,-89.478,207.825
-0.135,-1.256,-0.077,144.653,-133.179,246.643
0.181,-0.599,0.172,158.447,-145.752,267.212
0.75,0.865,0.689,134.888,-137.268,313.721
1.02,1.622,0.932,62.012,-72.51,284.607
1.711,2.828,0.835,30.457,-31.799,232.239
2.137,3.377,0.474,14.893,31.982,89.478
2.17,3.448,0.307,17.822,51.025,13.672
1.981,2.985,0.126,-3.54,72.998,-124.451
1.424,2.021,0.07,-59.692,74.646,-216.553
1.197,1.473,0.121,-98.511,71.96,-269.287
0.422,0.272,0.148,-106.323,72.632,-284.424
-0.501,-1.311,-0.127,-101.257,94.666,-293.945
-0.82,-3.357,-0.84,-83.496,93.689,-230.225
-0.745,-3.999,-1.124,-74.768,63.904,-141.418
-0.711,-3.723,-0.934,-45.593,-10.681,82.52
-0.512,-2.63,-0.569,36.194,-69.214,202.332
-0.321,-1.986,-0.351,125.488,-101.074,238.281
0.204,-0.597,0.088,151.184,-108.276,249.573
0.773,0.853,0.522,143.311,-104.37,260.315
1.065,1.472,0.642,115.356,-88.196,248.962
1.625,2.384,0.606,56.152,-40.771,177.856
1.895,2.692,0.335,41.87,1.465,57.495
1.929,2.654,0.219,45.715,14.709,-5.676
1.776,2.221,0.124,34.546,31.067,-109.314
1.61,1.883,0.098,10.986,37.903,-143.921
1.189,1.112,0.031,-44.067,48.828,-185.486
0.776,0.352,-0.013,-76.172,55.237,-203.857
0.413,-0.307,-0.114,-87.769,54.871,-201.538
0.272,-0.621,-0.191,-89.172,55.542,-193.787
0.073,-1.214,-0.419,-89.661,53.04,-160.522
0.078,-1.672,-0.587,-86.853,31.067,-101.44
0.183,-1.707,-0.657,-70.007,-3.906,-28.931
0.243,-1.57,-0.602,-48.462,-20.325,2.075
0.378,-1.196,-0.411,-2.808,-48.218,45.593
0.587,-0.818,-0.222,21.484,-66.772,73.12
0.701,-0.647,-0.153,26.245,-70.74,92.651
0.894,-0.343,-0.088,26.489,-68.237,98.755
1.008,-0.11,-0.054,32.776,-60.242,97.961
1.056,0.03,-0.049,42.847,-51.819,82.214
1.1,0.074,-0.045,47.119,-47.18,72.754
1.125,0.138,-0.065,46.143,-43.945,57.129
1.13,0.15,-0.059,42.786,-40.405,46.509
1.139,0.179,-0.043,31.189,-34.424,41.626
1.139,0.181,-0.035,23.193,-29.907,31.433
1.13,0.173,-0.021,22.278,-27.527,25.513
1.115,0.164,-0.005,21.973,-19.714,11.719
1.096,0.135,-0.012,23.499,-8.362,-2.747
1.089,0.115,-0.024,23.315,-3.662,-8.362
1.064,0.06,-0.061,22.034,4.15,-16.663
1.041,-0.014,-0.096,18.188,7.568,-17.578
1.02,-0.028,-0.113,15.564,6.042,-17.212
1.029,-0.062,-0.111,14.893,6.409,-16.724
1.031,-0.081,-0.112,12.268,0.427,-11.475
1.024,-0.086,-0.091,6.531,-4.639,-2.563
1.019,-0.076,-0.08,1.404,-6.287,3.235
1.002,-0.061,-0.08,-6.958,-7.202,11.475
0.988,-0.054,-0.07,-8.179,-5.615,12.756
0.982,-0.047,-0.067,-5.615,-3.54,8.606
0.971,-0.061,-0.066,-3.479,-2.991,5.554
0.981,-0.071,-0.067,0.488,-2.869,0.244
0.976,-0.08,-0.053,1.77,-1.892,-2.625
0.98,-0.09,-0.057,0.671,-0.305,-3.418
0.99,-0.116,-0.069,0.244,1.709,-4.822
0.992,-0.129,-0.068,3.113,2.197,-5.432
0.995,-0.133,-0.069,3.54,2.38,-5.005
0.997,-0.131,-0.072,4.028,3.296,-3.601
0.998,-0.114,-0.079,4.822,3.906,-1.587
0.997,-0.105,-0.085,6.714,3.54,-0.183
0.995,-0.094,-0.085,7.08,2.808,0.427
0.997,-0.082,-0.085,3.601,2.136,2.808
0.991,-0.075,-0.095,2.563,2.075,3.662
0.994,-0.065,-0.108,4.639,1.587,2.502
0.993,-0.058,-0.11,4.639,0.977,1.648
0.994,-0.055,-0.113,3.845,0.366,1.648
1.556,1.698,0.484,-42.053,32.288,107.666
1.563,2.117,0.564,-84.717,56.458,70.435
1.477,2.07,0.311,-122.803,91.553,-85.327
1.176,1.475,0.19,-40.71,92.346,-235.291
0.99,1.112,0.198,-4.639,87.524,-284.119
0.527,0.207,0.19,5.188,90.515,-318.42
-0.257,-1.149,-0.209,-57.678,100.342,-283.203
-0.532,-2.02,-0.593,-139.954,68.481,-169.983
-0.675,-3.53,-1.303,-171.631,25.33,-68.604
-0.796,-3.854,-1.226,-144.653,-43.396,128.296
-0.542,-2.828,-0.596,2.747,-85.022,220.52
-0.344,-2.27,-0.331,81.543,-95.947,243.286
0.183,-0.959,0.198,191.467,-104.004,278.198
0.705,1.232,0.831,191.467,-101.379,312.073
1.029,2.297,1.161,136.841,-76.172,314.148
1.796,3.44,1.052,-22.827,1.587,210.51
2.082,3.811,0.639,-36.255,53.589,19.958
2.087,3.688,0.519,1.16,70.374,-84.412
1.767,2.851,0.41,33.691,104.98,-240.173
1.421,2.258,0.293,12.817,122.803,-279.114
0.656,0.945,0.105,-54.688,147.888,-308.35
-0.166,-0.638,-0.259,-102.722,128.967,-322.144
-0.754,-2.536,-0.772,-122.681,76.172,-257.568
-0.829,-3.449,-1.053,-140.381,48.157,-167.969
-0.746,-4,-0.997,-145.691,-34.729,59.204
-0.588,-3.275,-0.704,-43.701,-60.12,182.251
-0.233,-1.995,-0.173,120.117,-75.012,236.572
0.034,-1.275,0.063,158.875,-88.501,254.028
0.612,0.459,0.56,160.156,-101.868,286.011
1.275,2.133,0.94,81.787,-63.232,278.076
1.649,2.723,0.903,34.607,-27.222,237.183
2.105,3.393,0.608,0.244,32.349,100.098
2.168,3.522,0.473,8.606,58.472,21.729
1.956,3.138,0.263,8.545,95.886,-124.329
1.412,2.134,0.09,-39.063,116.943,-221.985
1.048,1.557,0.013,-86.426,111.755,-273.437
0.133,0.184,-0.116,-98.328,106.323,-295.105
-0.576,-1.784,-0.328,-98.511,91.431,-314.148
-0.806,-3.719,-1,-110.901,52.246,-187.561
-0.854,-4,-1.125,-114.685,20.874,69.214
-0.876,-3.964,-0.992,-76.172,-34.668,159.424
-0.47,-2.512,-0.507,60.12,-66.956,233.765
0.022,-0.954,0.041,161.621,-104.431,268.555
0.33,-0.066,0.305,171.57,-113.342,284.302
0.983,1.738,0.768,126.282,-91.431,294.678
1.357,2.479,0.748,37.537,-25.513,225.403
1.978,3.447,0.584,14.526,5.92,159.668
2.125,3.781,0.296,10.193,49.316,3.906
2.047,3.544,0.171,0.977,64.209,-155.273
1.521,2.563,0,-38.025,75.745,-200.073
0.826,1.295,0.017,-84.351,61.34,-270.447
0.409,0.567,0.026,-103.699,53.162,-291.016
-0.476,-1.318,-0.116,-119.934,58.35,-303.284
-0.825,-3.551,-0.765,-105.713,65.43,-230.835
-0.691,-4,-1.007,-92.407,44.067,-139.465
-0.673,-3.91,-0.852,-46.387,-14.587,87.646
-0.4,-2.622,-0.49,41.016,-62.683,214.783
0.094,-1.053,-0.059,137.024,-92.346,256.348
0.424,-0.197,0.197,162.781,-96.619,277.1
1.058,1.675,0.679,138.489,-81.665,272.705
1.731,2.929,0.663,47.546,-32.532,194.092
1.977,3.245,0.536,20.569,-10.132,122.192
2.111,3.386,0.325,19.226,24.841,-45.593
2.027,3.101,0.242,-1.343,53.955,-177.734
1.516,2.135,0.1,-30.64,64.087,-215.332
0.817,0.997,0.002,-93.262,71.838,-255.31
0.103,-0.311,-0.127,-120.789,63.843,-271.118
-0.213,-1.071,-0.224,-124.39,57.129,-265.686
-0.456,-2.55,-0.598,-119.385,44.8,-197.327
-0.326,-3.178,-0.854,-96.985,12.085,-47.668
-0.149,-2.604,-0.672,-41.199,-15.869,70.496
0.006,-2.112,-0.49,13.428,-28.625,105.591
0.317,-1.177,-0.131,84.778,-57.373,149.963
0.71,-0.148,0.119,98.389,-70.19,162.842
0.913,0.254,0.211,84.656,-58.105,156.616
1.208,0.779,0.279,77.393,-49.5,142.212
1.383,1.065,0.224,69.214,-25.146,96.68
1.396,1.116,0.162,65.796,-14.038,68.176
1.415,1.014,0.021,53.711,1.953,9.399
1.316,0.767,-0.105,34.729,11.169,-30.64
1.251,0.647,-0.158,23.865,10.132,-41.016
1.105,0.405,-0.204,4.089,14.404,-51.453
1.042,0.289,-0.239,-12.329,13.123,-61.035
0.938,0.044,-0.254,-17.334,11.292,-63.416
0.86,-0.157,-0.283,-20.508,7.324,-59.692
0.853,-0.284,-0.265,-17.7,6.104,-48.828
0.84,-0.311,-0.256,-17.395,4.15,-41.26
0.842,-0.323,-0.245,-16.357,1.709,-26.672
0.87,-0.313,-0.252,-14.404,-3.052,-16.907
0.894,-0.31,-0.25,-10.986,-10.925,-7.996
0.94,-0.287,-0.23,-10.803,-13.672,-3.174
0.969,-0.266,-0.214,-11.841,-14.771,6.042
0.996,-0.233,-0.205,-9.399,-9.766,12.024
0.999,-0.218,-0.212,-6.531,-6.287,12.085
1.002,-0.181,-0.221,1.831,-5.432,10.01
1.002,-0.157,-0.201,8.179,-4.089,7.019
0.99,-0.135,-0.205,7.751,-1.77,7.507
0.993,-0.111,-0.206,8.606,-0.549,5.981
0.975,-0.081,-0.211,14.648,-0.793,1.221
0.971,-0.063,-0.202,22.4,-4.089,-5.798
0.972,-0.078,-0.185,23.682,-4.944,-7.751
0.968,-0.095,-0.176,13.123,-3.601,-5.493
0.972,-0.115,-0.178,1.526,-0.549,-1.038
0.964,-0.123,-0.185,-1.404,-0.305,1.709
0.973,-0.125,-0.184,15.442,-1.77,1.038
0.976,-0.12,-0.179,1.892,-2.747,1.282
0.981,-0.117,-0.173,1.282,-2.625,1.953
0.986,-0.104,-0.172,1.343,-2.38,2.197
0.98,-0.097,-0.173,2.625,-2.502,2.075
0.986,-0.089,-0.163,5.432,-2.136,0.244
0.985,-0.081,-0.162,0.916,-0.488,1.77
0.975,-0.074,-0.18,-1.282,0.244,3.662
0.972,-0.074,-0.188,-0.305,-0.244,2.686
0.973,-0.085,-0.183,1.953,-2.686,-0.671
0.976,-0.101,-0.173,-2.258,-3.479,0.122
0.974,-0.11,-0.18,-4.028,-3.357,0.732
0.976,-0.111,-0.186,-1.709,-3.662,-0.732
0.986,-0.111,-0.175,4.517,-5.31,-4.211
0.99,-0.125,-0.148,1.343,-4.639,-3.174
0.866,2.192,-0.031,5.676,19.836,113.831
0.878,2.382,-0.089,-12.573,30.762,63.171
0.962,2.409,-0.223,-43.091,43.152,-50.903
0.954,2.055,-0.261,-59.387,39.978,-149.414
0.916,1.53,-0.184,-77.637,30.457,-218.689
0.797,1.179,-0.147,-90.21,23.865,-241.089
0.635,0.613,-0.063,-116.211,19.409,-259.827
0.48,-0.016,0.014,-134.644,34.607,-246.155
0.393,-0.361,0.002,-141.541,41.504,-234.741
0.167,-1.1,-0.105,-143.005,47.424,-210.815
0.18,-2.008,-0.363,-129.028,51.697,-161.072
0.23,-2.355,-0.516,-99.365,34.607,-69.702
0.427,-2.523,-0.698,-68.604,20.569,-11.963
0.315,-2.014,-0.547,3.174,-1.648,102.905
0.354,-1.405,-0.456,60.974,-18.25,165.527
0.419,-1.115,-0.409,86.426,-25.085,181.03
0.594,-0.55,-0.297,128.357,-31.738,198.547
0.756,-0.039,-0.164,143.738,-39.124,210.999
0.819,0.5,-0.041,137.817,-33.508,221.375
0.904,0.8,0.056,125.427,-21.667,224.487
0.905,1.503,0.054,74.158,8.85,208.923
0.904,1.812,-0.186,14.648,35.095,149.658
0.927,2.295,-0.353,-5.92,40.955,102.112
0.905,2.47,-0.557,-27.893,35.889,-24.475
0.903,2.351,-0.576,-36.316,24.658,-93.933
0.876,1.764,-0.491,-51.453,0.854,-206.177
0.798,1.072,-0.336,-58.044,-10.01,-263.428
0.786,0.738,-0.236,-67.566,-2.563,-273.254
0.711,0.14,-0.098,-82.336,6.897,-259.827
0.572,-0.399,-0.121,-115.051,30.457,-207.214
0.348,-0.958,-0.232,-121.826,50.11,-155.151
0.297,-1.31,-0.298,-112.549,56.702,-134.094
0.252,-1.912,-0.499,-82.581,46.143,-94.604
0.399,-2.233,-0.665,-34.18,17.883,-32.837
0.454,-1.924,-0.598,24.414,-14.282,55.237
0.459,-1.706,-0.499,49.622,-25.146,102.539
0.499,-1.137,-0.352,87.524,-40.222,170.227
0.646,-0.654,-0.201,112,-40.955,204.712
0.658,-0.273,-0.186,117.31,-44.312,207.336
0.809,0.295,-0.132,118.591,-36.072,212.83
0.903,0.923,-0.055,95.276,-14.587,206.055
0.96,1.51,-0.146,41.687,5.005,172.241
0.975,1.792,-0.258,15.381,14.038,142.029
0.969,2.112,-0.465,-15.747,22.4,52.795
0.958,2.08,-0.542,-29.968,14.099,-64.636
0.959,1.877,-0.531,-36.316,6.531,-119.446
0.922,1.319,-0.458,-50.293,-7.019,-196.106
0.844,0.724,-0.369,-65.613,-11.841,-226.562
0.767,0.179,-0.231,-82.397,-5.31,-217.773
0.716,-0.059,-0.203,-93.262,2.197,-201.05
0.601,-0.474,-0.208,-109.863,19.958,-157.104
0.47,-0.849,-0.277,-110.168,32.288,-117.615
0.391,-1.342,-0.348,-91.431,32.898,-82.825
0.386,-1.575,-0.386,-58.167,16.846,-45.898
0.471,-1.932,-0.468,-34.241,6.958,-21.484
0.551,-1.869,-0.459,22.766,-14.038,37.17
0.55,-1.415,-0.366,73.669,-28.381,108.459
0.566,-1.164,-0.322,90.759,-32.593,157.898
0.653,-0.682,-0.256,110.657,-37.17,173.34
0.742,-0.158,-0.189,119.934,-44.312,180.237
0.802,0.083,-0.165,121.948,-39.551,181.824
0.919,0.484,-0.104,120.85,-23.437,178.345
0.976,0.97,-0.093,100.891,-12.573,162.17
0.992,1.194,-0.122,82.886,-6.47,145.935
0.99,1.46,-0.255,45.776,6.042,94.055
0.985,1.464,-0.382,32.41,10.986,15.625
0.993,1.358,-0.403,35.4,7.751,-24.841
1.005,1.09,-0.356,38.33,-2.93,-85.022
1.001,0.93,-0.314,16.052,0,-106.506
0.95,0.617,-0.279,-3.174,1.953,-108.765
0.864,0.34,-0.304,-39.856,2.93,-107.666
0.823,0.208,-0.359,-58.167,4.7,-103.821
0.771,-0.032,-0.384,-58.228,7.629,-101.501
0.761,-0.236,-0.415,-49.316,11.353,-91.736
0.766,-0.37,-0.444,-38.147,5.371,-75.867
0.801,-0.449,-0.433,-30.212,-1.16,-49.988
0.811,-0.46,-0.423,-27.466,-5.127,-36.194
0.813,-0.395,-0.39,-17.944,-8.423,-11.658
0.832,-0.321,-0.355,-6.592,-8.423,2.563
0.84,-0.279,-0.348,13.672,-7.202,8.667
0.881,-0.206,-0.333,5.92,-6.714,9.583
0.919,-0.133,-0.316,10.559,-5.127,10.681
0.965,-0.082,-0.326,12.085,-6.165,11.414
0.964,-0.054,-0.332,12.146,-6.775,11.536
0.969,-0.002,-0.333,11.597,-6.836,10.681
0.98,0.041,-0.343,13.062,-5.859,7.202
0.987,0.054,-0.335,15.076,-5.066,4.761
0.98,0.063,-0.328,13.672,-1.77,1.953
0.977,0.069,-0.345,12.146,0.061,1.282
0.966,0.079,-0.377,14.282,1.831,-0.793
0.964,0.079,-0.366,17.456,1.526,-2.258
0.958,0.085,-0.364,15.442,1.465,-1.831
0.95,0.085,-0.371,9.521,1.648,-0.732
0.948,0.079,-0.369,6.836,1.038,-0.427
0.935,0.069,-0.367,2.136,0.183,-0.122
0.934,0.059,-0.351,1.587,-1.587,-0.916
0.922,0.052,-0.335,-0.244,-1.831,-1.587
0.919,0.046,-0.337,-1.038,-2.075,-2.197
0.927,0.026,-0.328,-1.404,-2.625,-3.784
0.916,0.007,-0.318,-4.395,-2.93,-3.235
0.914,-0.002,-0.325,-4.456,-3.174,-3.784
0.911,-0.016,-0.319,-2.319,-3.723,-4.578
0.922,-0.033,-0.304,-2.197,-3.54,-4.578
0.934,-0.041,-0.309,-4.761,-2.686,-2.625
0.94,-0.032,-0.31,-4.333,-1.892,-0.549
0.942,-0.024,-0.31,-3.662,-1.282,-0.366
0.945,-0.018,-0.325,-1.709,-0.244,-1.343
0.946,-0.006,-0.337,1.343,-0.061,-2.441
0.953,-0.003,-0.323,2.625,-0.549,-2.808
0.954,-0.001,-0.328,-0.366,0.61,-1.038
0.948,0,-0.353,-0.977,0.916,-0.61
0.944,0.003,-0.348,0.977,1.343,-0.427
0.943,0.005,-0.35,-0.122,1.404,-0.183
0.937,0.009,-0.357,-0.244,1.099,-0.305
0.941,0.011,-0.348,1.526,0.061,-1.343
0.937,0.007,-0.337,1.282,-0.488,-1.282
0.938,0.009,-0.334,0.305,-0.61,-1.282
0.936,0.005,-0.327,-0.305,-0.183,-1.099
0.934,0,-0.32,0.061,-0.183,-1.465
0.22,-2.182,-0.547,-103.943,39.307,-37.72
0.234,-2.229,-0.649,-97.168,31.25,22.034
0.195,-1.924,-0.556,-49.133,10.071,150.146
0.163,-1.42,-0.385,-6.958,-11.719,243.713
0.194,-1.14,-0.325,3.723,-20.02,273.315
0.431,-0.59,-0.22,26.428,-26.855,304.504
0.594,0.015,-0.126,60.242,-27.527,306.274
0.81,0.711,0.004,90.149,-16.968,284.729
0.884,1.094,0.079,91.125,-11.108,267.639
1.012,1.793,0.122,48.889,-0.854,210.449
1.019,2.227,-0.13,-20.447,16.968,113.525
0.992,2.235,-0.309,-42.786,19.409,46.936
0.951,1.874,-0.435,-40.466,0.488,-106.079
0.837,1.302,-0.296,-14.038,-20.691,-237.183
0.677,0.527,-0.141,9.521,-27.344,-327.82
0.549,0.081,-0.062,15.503,-24.902,-355.652
0.314,-0.937,0.007,1.16,-9.094,-366.089
0.107,-2.114,-0.257,-59.326,28.32,-286.682
0.197,-2.758,-0.562,-90.21,37.292,-211.67
0.32,-3.053,-0.984,-81.055,27.588,-5.859
0.1,-2.253,-0.577,-1.282,3.662,195.679
0.069,-1.786,-0.42,17.883,-3.174,259.827
0.238,-0.922,-0.338,33.997,-10.864,328.369
0.501,-0.119,-0.258,74.219,-11.597,343.567
0.607,0.311,-0.254,96.13,-16.663,334.595
0.796,1.278,0.155,122.986,-20.996,320.862
0.899,2.391,0.379,41.199,-15.625,249.634
0.934,2.652,0.14,-30.64,6.104,187.683
0.903,2.534,-0.561,-87.585,33.63,13.184
0.911,2.102,-0.601,-19.775,4.639,-176.514
0.878,1.771,-0.43,8.728,-11.719,-250.671
0.821,0.938,-0.131,19.226,-27.527,-338.928
0.576,-0.054,-0.012,-10.376,-18.799,-357.056
0.468,-0.591,-0.08,-47.485,1.526,-322.449
0.305,-1.667,-0.179,-66.833,15.564,-280.029
0.336,-2.573,-0.601,-86.426,29.541,-149.353
0.322,-2.655,-0.741,-51.819,16.296,18.005
0.287,-2.352,-0.613,-23.682,3.235,96.863
0.335,-1.605,-0.365,11.292,-10.986,213.135
0.427,-0.758,-0.224,37.231,-15.015,266.785
0.717,-0.374,-0.143,55.298,-11.78,276.306
0.82,0.6,0.019,77.087,-3.418,270.996
0.951,1.47,0.089,48.096,15.076,221.863
0.982,1.794,-0.043,18.188,25.146,179.321
1.046,2.152,-0.413,-17.334,40.222,64.392
1.052,2.14,-0.529,1.465,28.381,-77.209
1.042,1.842,-0.484,13.306,18.616,-143.066
0.99,1.228,-0.301,11.719,1.892,-240.356
0.918,0.86,-0.227,0.366,-1.709,-284.424
0.68,0.059,-0.17,-27.527,-1.16,-292.48
0.399,-0.842,-0.13,-44.067,6.287,-281.799
0.262,-1.872,-0.347,-65.247,33.081,-216.187
0.277,-2.284,-0.558,-70.557,34.973,-87.952
0.336,-2.527,-0.735,-44.8,26.855,-8.667
0.288,-1.943,-0.54,-4.395,-3.418,135.62
0.39,-1.191,-0.412,15.747,-19.043,223.267
0.492,-0.801,-0.353,27.283,-25.146,243.713
0.755,0.059,-0.107,50.72,-27.222,249.023
0.865,0.925,-0.012,34.729,-17.09,207.642
0.955,1.202,-0.081,15.076,-9.644,169.556
1.016,1.498,-0.379,-5.737,-2.93,71.045
1.067,1.497,-0.463,13.062,-16.235,-40.833
1.128,1.26,-0.405,22.888,-25.146,-86.914
1.096,0.862,-0.264,19.226,-34.79,-144.836
0.978,0.381,-0.158,-8.24,-32.532,-163.818
0.904,0.13,-0.116,-21.79,-28.992,-164.246
0.762,-0.313,-0.081,-39.49,-18.25,-153.564
0.654,-0.616,-0.123,-39.978,-3.784,-132.141
0.613,-0.846,-0.198,-31.25,4.333,-104.553
0.577,-0.901,-0.241,-25.024,4.517,-88.074
0.599,-0.946,-0.274,-11.047,-1.709,-49.927
0.61,-0.852,-0.278,3.662,-14.648,-13.306
0.622,-0.782,-0.291,10.193,-22.522,1.282
0.634,-0.642,-0.313,22.766,-37.72,24.231
0.665,-0.526,-0.293,34.546,-50.354,33.691
0.724,-0.454,-0.257,39.856,-54.932,33.203
0.761,-0.315,-0.2,51.453,-63.171,23.499
0.765,-0.282,-0.168,63.843,-69.275,10.254
0.778,-0.274,-0.156,69.58,-70.007,4.517
0.824,-0.278,-0.137,80.933,-68.604,-5.188
0.882,-0.261,-0.104,87.769,-66.956,-7.629
0.906,-0.259,-0.091,86.731,-66.345,-5.432
0.927,-0.241,-0.073,77.148,-64.209,2.502
0.966,-0.193,-0.066,66.223,-59.57,9.705
0.998,-0.155,-0.057,60.852,-56.152,12.146
1.083,-0.088,-0.036,51.27,-51.514,11.597
1.191,-0.046,-0.033,43.64,-50.476,5.432
1.208,-0.053,-0.044,38.818,-48.645,2.38
1.204,-0.068,-0.049,28.503,-41.138,-0.854
1.238,-0.079,-0.048,20.203,-36.56,-3.296
1.269,-0.08,-0.05,15.93,-34.79,-3.662
1.284,-0.078,-0.043,7.324,-30.029,-2.136
1.25,-0.099,-0.031,0.977,-20.935,-0.488
1.24,-0.109,-0.031,-0.427,-16.663,-0.793
1.21,-0.141,-0.014,0.549,-10.071,-0.366
1.179,-0.148,-0.015,0.244,-2.869,2.502
1.161,-0.142,-0.029,-1.465,15.381,5.981
1.102,-0.141,-0.038,-3.723,1.892,6.165
1.072,-0.141,-0.039,-4.578,2.869,4.517
1.052,-0.144,-0.037,-5.005,3.723,3.601
1.011,-0.161,-0.014,-6.165,5.493,0.732
0.989,-0.19,-0.034,-8.606,7.019,-2.502
0.981,-0.2,-0.046,-8.85,7.507,-3.479
0.962,-0.22,-0.049,-7.751,7.874,-4.822
0.964,-0.24,-0.052,-9.46,7.751,-4.456
0.96,-0.243,-0.047,-10.132,7.507,-2.502
0.957,-0.247,-0.05,-10.132,7.324,-1.709
0.946,-0.248,-0.058,-10.559,7.812,0.793
0.96,-0.243,-0.064,-9.766,7.935,2.808
0.965,-0.236,-0.076,-9.399,7.202,3.845
0.949,-0.219,-0.089,-6.287,2.625,3.662
0.953,-0.223,-0.075,-2.869,-0.061,0.549
0.98,-0.221,-0.059,-2.441,0.122,0.061
0.986,-0.205,-0.072,-2.075,-0.61,-0.122
0.966,-0.196,-0.089,0.122,-2.136,-2.38
0.967,-0.202,-0.09,0.366,-2.014,-3.479
1.001,-0.221,-0.051,-1.709,-0.793,-2.869
0.999,-0.217,-0.041,-8.606,2.258,3.052
0.989,-0.221,-0.048,-10.315,3.662,5.554
-0.004,-1.721,-0.922,-16.235,37.292,12.268
0.008,-1.717,-0.871,1.465,13.184,49.5
0.084,-1.391,-0.653,27.466,-30.884,129.211
0.251,-0.951,-0.441,35.461,-62.439,196.045
0.393,-0.695,-0.339,43.457,-77.515,240.845
0.582,-0.102,-0.171,48.584,-79.834,253.418
0.81,0.583,0.121,50.11,-66.406,264.099
0.89,0.943,0.332,17.7,-30.518,241.516
1.043,1.661,0.326,-9.094,-6.226,212.402
1.057,2.098,0.002,-52.856,35.828,112.671
1.032,2.107,-0.198,-58.96,46.997,-31.372
1.011,1.732,-0.39,-35.583,41.504,-105.652
0.9,1.099,-0.242,-15.808,17.761,-223.45
0.681,0.237,-0.133,-26.001,4.517,-291.443
0.533,-0.244,-0.108,-36.743,4.456,-304.993
0.308,-1.248,-0.17,-68.42,23.926,-279.053
0.186,-2.227,-0.45,-96.863,38.025,-189.148
0.178,-2.671,-0.743,-76.965,26.001,-61.768
0.189,-2.61,-0.745,-46.021,11.719,10.376
0.21,-1.971,-0.504,18.494,-15.381,138.672
0.327,-1.223,-0.338,47.485,-34.302,218.201
0.473,-0.874,-0.287,59.326,-41.138,238.953
0.745,-0.169,-0.108,87.402,-47.424,260.864
0.859,0.246,0.133,100.525,-27.527,259.766
1.051,1.073,0.247,89.355,-9.888,246.826
1.145,1.81,0.168,21.729,35.095,189.819
1.151,2.103,-0.081,-20.508,56.396,143.738
1.133,2.277,-0.651,-57.678,66.04,15.686
1.06,1.833,-0.671,-28.442,33.203,-135.742
1.012,1.531,-0.53,-13.184,-0.061,-249.512
0.866,0.747,-0.291,-20.203,-7.263,-281.433
0.63,-0.163,-0.136,-43.152,-7.08,-301.758
0.336,-1.114,-0.135,-63.782,19.165,-263.184
0.178,-1.632,-0.277,-71.777,32.776,-226.013
0.221,-2.417,-0.615,-57.678,39.795,-125.305
0.204,-2.374,-0.697,-14.465,16.968,10.437
0.191,-2.101,-0.606,3.845,0.671,77.454
0.28,-1.48,-0.468,28.32,-26.184,179.443
0.457,-0.746,-0.364,51.758,-41.382,231.445
0.577,-0.393,-0.175,80.261,-46.387,243.774
0.777,0.374,-0.094,84.839,-47.241,240.295
0.987,1.184,0.043,60.974,-28.625,203.186
1.068,1.496,0.005,32.776,-14.099,128.723
1.148,1.914,-0.321,-14.832,6.287,77.454
1.187,1.868,-0.502,-14.465,1.953,-45.41
1.169,1.725,-0.466,-4.15,-7.141,-170.166
1.121,1.202,-0.288,1.221,-22.827,-205.139
0.948,0.505,-0.11,-15.137,-25.33,-252.991
0.72,-0.303,0.034,-33.875,-13.062,-259.766
0.513,-0.68,0.017,-43.945,0.488,-227.539
0.293,-1.572,-0.197,-55.176,37.964,-197.388
0.275,-2.263,-0.564,-43.823,48.889,-110.413
0.333,-2.385,-0.662,-15.259,22.766,15.991
0.304,-2.037,-0.552,0,6.287,80.566
0.368,-1.426,-0.389,18.982,-17.944,176.453
0.448,-1.1,-0.341,36.56,-25.94,222.656
0.657,-0.455,-0.246,48.767,-26.123,231.323
0.787,0.248,-0.16,66.895,-22.766,224.731
0.891,0.595,-0.067,61.096,-6.47,189.209
1.02,1.222,-0.13,43.701,0.854,159.546
1.119,1.652,-0.31,5.371,10.681,77.881
1.131,1.705,-0.401,-5.066,8.85,27.405
1.115,1.581,-0.471,-6.653,-4.15,-79.956
1.102,1.132,-0.354,3.784,-21.729,-175.171
1.024,0.85,-0.278,3.845,-26.978,-208.252
0.878,0.216,-0.116,-8.118,-28.32,-240.662
0.719,-0.403,-0.01,-25.146,-11.353,-229.065
0.638,-0.654,-0.023,-45.776,23.071,-180.908
0.486,-1.093,-0.17,-52.429,35.95,-151.367
0.414,-1.348,-0.354,-52.307,42.053,-91.553
0.415,-1.392,-0.441,-35.461,30.273,-29.785
0.421,-1.322,-0.439,-24.963,18.799,-2.686
0.463,-1.088,-0.349,-2.319,-3.906,40.283
0.561,-0.816,-0.267,16.846,-19.47,67.749
0.624,-0.687,-0.245,23.193,-25.024,76.66
0.694,-0.441,-0.196,31.311,-34.302,85.876
0.684,-0.237,-0.174,40.039,-38.147,78.674
0.74,-0.171,-0.143,44.861,-40.222,67.261
0.81,-0.063,-0.127,48.95,-41.931,44.495
0.845,-0.005,-0.187,46.936,-37.354,25.146
0.87,-0.009,-0.23,44.678,-37.354,7.751
0.913,-0.051,-0.283,40.527,-42.969,1.526
0.922,-0.092,-0.303,34.485,-49.438,-8.179
0.928,-0.114,-0.307,15.991,-55.237,-15.93
0.944,-0.161,-0.288,28.32,-58.472,-18.616
1.002,-0.189,-0.244,27.832,-62.012,-20.935
1.008,-0.199,-0.225,29.48,-60.242,-19.592
1.03,-0.192,-0.183,29.48,-56.458,-18.433
1.073,-0.194,-0.168,23.926,-48.462,-15.381
1.097,-0.21,-0.169,14.648,-42.175,-9.46
1.1,-0.217,-0.18,9.521,-39.856,-6.165
1.12,-0.225,-0.194,4.333,-36.621,-1.282
1.145,-0.234,-0.183,5.554,-33.752,2.869
1.162,-0.235,-0.169,7.263,-31.677,4.639
1.197,-0.233,-0.129,11.169,-26.917,8.118
1.208,-0.204,-0.093,14.954,-20.874,13.306
1.207,-0.189,-0.081,16.296,-17.822,15.32
1.185,-0.155,-0.053,16.052,-12.39,18.066
1.148,-0.124,-0.023,11.719,-6.897,18.311
1.123,-0.124,-0.022,8.545,-5.188,17.151
1.099,-0.119,-0.004,3.357,-3.296,11.536
1.074,-0.142,-0.022,-1.343,-1.221,5.31
1.044,-0.149,-0.052,-2.686,-0.427,-1.282
0.992,-0.18,-0.081,-0.183,-0.061,-4.7
0.979,-0.234,-0.076,3.052,2.808,-9.033
0.956,-0.25,-0.112,3.174,5.432,-7.08
0.938,-0.248,-0.132,3.54,5.066,-5.554
0.917,-0.237,-0.137,5.615,3.052,-4.578
0.927,-0.244,-0.119,6.836,0.305,-3.479
0.931,-0.242,-0.115,5.859,0.122,-1.831
0.957,-0.232,-0.088,2.38,0.366,3.235
0.976,-0.198,-0.077,-2.991,1.282,8.24
0.978,-0.193,-0.085,-4.333,1.831,9.216
0.991,-0.178,-0.093,-4.089,2.808,7.812
0.995,-0.172,-0.094,-0.793,2.136,3.357
0.99,-0.186,-0.095,0.793,1.587,0.427
0.998,-0.196,-0.087,2.808,1.709,-3.418
1,-0.199,-0.08,1.953,2.686,-3.601
0.991,-0.217,-0.089,1.16,3.723,-3.296
0.083,-2.065,-0.725,-32.959,20.508,3.357
0.059,-1.811,-0.564,7.446,-11.963,121.46
0.036,-1.548,-0.445,21.423,-23.01,173.95
0.167,-0.997,-0.233,35.706,-30.457,243.774
0.419,-0.367,-0.164,51.025,-26.733,273.254
0.613,-0.027,-0.065,69.031,-28.809,274.963
0.794,0.879,0.141,69.214,-21.973,262.146
0.993,1.62,0.214,23.743,4.028,207.947
1.046,1.886,0.05,-10.254,37.72,116.699
1.01,2.134,-0.428,-44.25,45.776,55.664
0.965,1.865,-0.606,-20.691,29.48,-87.769
0.927,1.302,-0.424,4.883,-0.427,-211.914
0.78,0.905,-0.327,7.263,-9.949,-257.69
0.55,0.037,-0.208,3.174,-12.085,-311.462
0.26,-0.907,-0.192,-7.568,-2.014,-316.345
0.224,-1.831,-0.391,-29.358,28.076,-241.943
0.219,-2.164,-0.802,-62.5,29.907,-96.008
0.217,-2.391,-0.837,-63.171,18.799,-8.362
0.16,-1.89,-0.645,-31.433,-7.324,144.043
0.198,-1.241,-0.501,-2.258,-28.992,223.206
0.428,-0.899,-0.448,13.123,-37.72,241.028
0.733,-0.225,-0.307,48.34,-44.006,253.418
0.954,0.092,-0.109,68.298,-39.673,246.46
1.048,0.835,-0.047,65.063,-32.043,233.276
1.182,1.471,0.003,29.175,-5.249,177.917
1.202,1.706,-0.125,-16.357,17.578,84.473
1.166,1.843,-0.451,-24.597,22.583,25.208
1.134,1.595,-0.492,-9.216,10.193,-103.455
1.048,1.082,-0.319,6.714,-5.737,-209.351
0.982,0.771,-0.245,9.888,-8.728,-247.131
0.78,0.101,-0.132,10.925,-5.127,-291.26
0.516,-0.686,-0.09,-1.953,10.437,-295.166
0.375,-1.082,-0.126,-14.832,25.513,-275.391
0.297,-1.875,-0.475,-50.72,49.438,-192.81
0.332,-2.329,-0.846,-57.495,39.307,-59.448
0.275,-2.25,-0.842,-40.527,24.048,19.348
0.212,-1.754,-0.576,-5.493,-9.521,154.602
0.313,-1.118,-0.43,8.484,-29.053,229.614
0.419,-0.818,-0.391,32.532,-37.72,255.798
0.654,-0.176,-0.263,49.744,-36.865,258.606
0.861,0.483,-0.095,72.51,-30.396,247.864
0.937,0.86,-0.036,69.397,-25.33,234.68
1.082,1.472,0.049,30.884,-1.526,182.983
1.115,1.859,-0.211,-22.705,22.461,97.351
1.101,1.945,-0.35,-32.41,28.687,39.368
1.084,1.681,-0.449,-19.104,21.118,-91.797
1.019,1.215,-0.323,-1.831,7.629,-199.646
0.966,0.615,-0.212,0.732,4.944,-267.517
0.789,0.312,-0.207,-0.793,7.019,-287.415
0.536,-0.356,-0.17,-1.099,12.085,-303.711
0.41,-0.75,-0.169,-14.038,33.081,-278.015
0.234,-1.553,-0.311,-30.823,49.561,-242.371
0.229,-2.227,-0.781,-59.448,60.181,-131.897
0.186,-2.259,-0.909,-43.335,31.86,22.278
0.14,-2.029,-0.774,-23.315,10.193,95.276
0.192,-1.458,-0.553,1.221,-19.775,194.702
0.394,-0.898,-0.457,18.738,-37.598,236.694
0.5,-0.618,-0.394,33.813,-43.152,243.408
0.718,-0.08,-0.233,66.956,-46.387,238.464
0.905,0.463,-0.096,81.604,-39.307,217.346
0.988,0.744,-0.042,66.772,-23.071,184.448
1.109,1.216,-0.049,47.974,-10.986,162.292
1.148,1.56,-0.193,8.606,8.423,98.206
1.15,1.672,-0.283,-3.235,13.916,55.481
1.144,1.617,-0.352,-12.878,13.672,-41.199
1.08,1.357,-0.318,-21.484,6.836,-133.362
1.034,1.127,-0.267,-26.733,3.601,-205.505
0.901,0.605,-0.212,-33.936,4.578,-232.056
0.732,0.02,-0.188,-30.64,8.911,-264.893
0.657,-0.337,-0.145,-31.738,19.043,-260.803
0.448,-0.971,-0.168,-40.833,29.419,-240.234
0.302,-1.699,-0.391,-61.523,47.302,-172.363
0.262,-2,-0.542,-59.57,43.274,-67.749
0.251,-2.178,-0.73,-43.823,30.762,-6.653
0.235,-1.832,-0.583,-6.958,-5.188,109.253
0.275,-1.278,-0.458,12.451,-29.175,188.049
0.419,-0.999,-0.414,22.888,-37.354,211.121
0.607,-0.442,-0.303,51.27,-47.18,231.75
0.807,0.204,-0.105,71.716,-44.678,225.769
0.875,0.515,0.003,67.505,-40.1,210.632
1.038,1.023,-0.018,35.217,-21.179,159.546
1.086,1.181,-0.092,20.081,-8.118,87.585
1.132,1.325,-0.283,11.23,1.221,43.457
1.137,1.174,-0.278,24.658,-4.578,-43.884
1.112,1.04,-0.248,26.611,-7.385,-80.627
1.015,0.676,-0.21,16.907,-8.545,-132.812
0.854,0.272,-0.206,7.202,-7.324,-164.734
0.718,-0.12,-0.204,6.958,-4.7,-180.176
0.667,-0.274,-0.228,7.202,-2.075,-179.321
0.628,-0.531,-0.271,2.563,2.441,-159.973
0.644,-0.712,-0.332,-6.775,4.395,-123.23
0.656,-0.764,-0.341,-11.902,2.197,-99.121
0.632,-0.73,-0.362,-19.226,-0.183,-49.988
0.646,-0.671,-0.363,-21.667,-6.226,-13.611
0.653,-0.617,-0.365,-21.24,-9.216,5.127
0.716,-0.551,-0.378,-17.395,-17.639,9.521
0.81,-0.495,-0.361,-7.935,-27.344,13.062
0.872,-0.448,-0.315,1.038,-33.875,13.123
0.898,-0.427,-0.288,3.54,-34.912,13.855
0.946,-0.376,-0.253,5.005,-34.241,15.869
0.979,-0.33,-0.247,5.005,-33.081,17.151
0.99,-0.313,-0.242,5.676,-32.593,16.663
1,-0.295,-0.256,5.981,-30.151,14.221
1.015,-0.282,-0.25,7.385,-30.09,10.742
1.024,-0.268,-0.245,8.606,-29.358,9.46
1.032,-0.239,-0.225,11.353,-25.269,6.165
1.039,-0.225,-0.206,11.23,-20.813,2.563
1.053,-0.226,-0.215,9.521,-18.677,0.793
1.06,-0.244,-0.234,8.423,-15.747,-2.014
1.054,-0.256,-0.257,8.484,-13.123,-2.563
1.058,-0.266,-0.259,9.583,-11.902,-1.16
1.055,-0.266,-0.262,10.986,-11.353,0.916
1.06,-0.252,-0.249,12.573,-10.803,4.822
1.059,-0.238,-0.24,12.39,-8.789,9.338
1.046,-0.211,-0.233,11.414,-7.751,11.169
1.034,-0.186,-0.205,9.827,-7.202,12.39
1.018,-0.176,-0.196,6.653,-5.798,12.695
0.996,-0.157,-0.184,5.798,-5.737,11.475
0.986,-0.16,-0.154,5.249,-5.92,7.324
0.914,1.234,-0.411,-61.707,94.604,-7.019
0.877,1.09,-0.457,-47.119,89.05,-123.047
0.82,0.758,-0.393,-20.447,67.444,-150.818
0.718,0.34,-0.257,-18.005,44.128,-207.703
0.669,0.112,-0.179,-34.79,29.785,-231.628
0.513,-0.405,-0.052,-50.964,28.87,-228.76
0.275,-0.999,-0.008,-90.393,36.56,-205.017
0.172,-1.67,-0.207,-110.84,50.842,-157.898
0.193,-1.899,-0.36,-103.027,54.138,-72.632
0.258,-2.089,-0.625,-57.983,48.95,-15.503
0.216,-1.757,-0.589,-8.179,26.733,106.445
0.221,-1.485,-0.537,10.559,-2.625,192.139
0.33,-0.935,-0.452,18.433,-16.052,215.332
0.624,-0.423,-0.364,42.48,-40.1,234.619
0.736,-0.137,-0.235,72.205,-51.575,240.906
0.935,0.58,0.113,76.172,-46.204,236.328
1.059,1.368,0.384,34.18,-9.827,199.951
1.1,1.679,0.295,-28.32,52.917,120.361
1.047,1.937,-0.233,-42.236,75.623,61.584
1.027,1.619,-0.613,-24.658,74.463,-73.303
1.002,1.39,-0.61,-8.789,57.678,-131.958
0.852,0.766,-0.397,-9.216,26.855,-213.623
0.662,-0.022,-0.318,-38.879,15.869,-250.488
0.55,-0.427,-0.323,-55.298,15.564,-252.808
0.403,-1.197,-0.422,-80.566,20.935,-216.125
0.347,-2.023,-0.621,-86.426,20.447,-130.554
0.407,-2.067,-0.713,-44.8,0.488,-14.343
0.425,-1.902,-0.617,-12.878,-8.24,47.18
0.458,-1.398,-0.469,26.672,-26.001,144.775
0.591,-0.782,-0.364,44.006,-37.659,198.792
0.685,-0.48,-0.302,56.03,-40.1,211.609
0.963,0.155,-0.086,81.97,-35.217,218.323
1.009,0.907,0.106,72.754,-19.47,198.242
1.065,1.25,0.136,49.683,-0.977,173.279
1.106,1.624,-0.184,-6.042,34.058,95.337
1.074,1.604,-0.491,-14.709,42.603,-13.855
1.065,1.449,-0.519,-3.662,37.354,-71.594
1.013,1.037,-0.399,6.226,22.766,-161.377
0.842,0.39,-0.285,-20.63,15.625,-208.557
0.718,-0.002,-0.303,-40.161,14.587,-218.872
0.548,-0.792,-0.425,-66.162,17.7,-208.008
0.459,-1.574,-0.527,-60.242,16.418,-150.574
0.491,-1.81,-0.604,-48.706,11.963,-107.605
0.492,-1.941,-0.578,-13.062,0.305,4.761
0.502,-1.531,-0.494,14.038,-15.259,112.122
0.533,-1.264,-0.437,22.4,-21.362,154.602
0.658,-0.622,-0.313,38.574,-24.963,207.947
0.859,0.05,-0.194,55.725,-18.066,221.13
0.876,0.409,-0.088,55.42,-7.507,201.782
0.998,1.17,-0.052,43.945,5.371,177.185
1.031,1.68,-0.257,2.991,30.823,99.731
1.024,1.775,-0.433,-12.512,38.208,47.241
1.026,1.676,-0.607,-12.024,32.837,-72.51
0.978,1.219,-0.491,-8.789,14.343,-173.889
0.914,0.93,-0.425,-31.128,3.418,-233.582
0.729,0.214,-0.333,-34.668,1.16,-249.573
0.491,-0.63,-0.334,-46.753,-0.122,-253.967
0.379,-1.419,-0.453,-45.471,9.46,-208.984
0.391,-1.777,-0.509,-39.185,11.536,-166.748
0.455,-2.159,-0.571,-22.827,5.615,-47.729
0.414,-1.838,-0.506,-11.414,-11.23,84.473
0.441,-1.608,-0.443,-3.906,-14.16,141.663
0.538,-0.939,-0.354,15.259,-16.174,215.576
0.797,-0.284,-0.246,42.114,-14.221,237.854
0.782,0.118,-0.191,52.673,-13.916,234.192
0.964,0.905,-0.095,53.955,-4.272,198.914
1.049,1.512,-0.204,21.179,15.869,127.197
1.055,1.654,-0.357,7.08,24.292,77.637
1.057,1.651,-0.584,5.737,24.78,-38.391
1.035,1.35,-0.561,13.733,9.644,-145.325
1.006,1.082,-0.482,10.62,1.038,-185.059
0.874,0.504,-0.337,-10.864,-6.714,-228.027
0.678,-0.154,-0.294,-36.743,-3.967,-235.229
0.593,-0.479,-0.301,-43.152,-0.854,-228.699
0.483,-1.025,-0.36,-46.631,9.338,-190.308
0.488,-1.395,-0.435,-47.546,19.104,-115.662
0.488,-1.455,-0.487,-46.021,12.085,-28.442
0.478,-1.398,-0.503,-39.795,6.165,10.01
0.499,-1.12,-0.425,-19.897,-12.024,66.833
0.574,-0.825,-0.338,3.113,-22.766,93.201
0.637,-0.674,-0.303,14.709,-27.039,97.595
0.766,-0.406,-0.233,35.339,-28.625,98.206
0.846,-0.167,-0.208,44.678,-24.841,92.651
0.874,-0.089,-0.204,48.035,-22.339,87.036
0.883,0.042,-0.195,51.453,-14.343,73.059
0.847,0.122,-0.226,48.645,-8.606,48.645
0.884,0.137,-0.268,45.837,-8.606,34.363
0.854,0.082,-0.316,37.781,-5.859,16.418
0.847,0.025,-0.352,30.273,-12.634,0.488
0.835,-0.003,-0.361,27.893,-16.724,-4.7
0.823,-0.056,-0.374,26.306,-24.414,-13.489
0.827,-0.094,-0.383,27.771,-30.579,-20.447
0.839,-0.105,-0.378,28.381,-32.715,-22.888
0.878,-0.125,-0.364,27.344,-37.292,-23.499
0.921,-0.128,-0.338,23.376,-39.612,-19.531
0.941,-0.125,-0.328,21.912,-39.368,-17.334
0.949,-0.11,-0.32,19.348,-35.278,-13.245
0.97,-0.109,-0.343,16.541,-32.288,-12.756
0.976,-0.105,-0.348,15.137,-31.189,-11.536
0.985,-0.099,-0.346,12.207,-31.494,-10.803
0.994,-0.107,-0.333,9.216,-33.752,-10.864
0.999,-0.11,-0.327,7.751,-35.217,-11.353
1.007,-0.12,-0.312,7.751,-35.095,-11.597
1.047,-0.125,-0.296,7.507,-32.776,-9.766
1.084,-0.138,-0.284,6.226,-31.25,-5.737
1.124,-0.13,-0.284,4.639,-28.259,-1.709
1.126,-0.122,-0.29,4.15,-26.855,0.488
1.129,-0.117,-0.271,4.456,-24.353,2.38
1.124,-0.116,-0.243,3.967,-21.606,2.869
1.115,-0.12,-0.233,4.333,-20.813,2.563
1.119,-0.131,-0.18,5.493,-18.555,1.953
1.085,-0.133,-0.15,2.93,-14.038,3.662
1.058,-0.142,-0.141,2.319,-10.132,3.296
1.046,-0.143,-0.138,3.052,-8.118,3.052
1.026,-0.144,-0.123,5.615,-3.479,1.77
1.014,-0.145,-0.122,6.897,-0.488,0.427
0.995,-0.134,-0.144,6.47,1.526,-0.427
0.991,-0.136,-0.148,6.226,2.075,-0.549
0.976,-0.129,-0.177,3.906,3.174,0.305
0.03,-1.866,-0.763,-18.799,23.499,8.85
0.056,-1.792,-0.718,2.258,-28.259,92.407
0.135,-1.463,-0.556,34.668,-33.508,132.568
0.223,-1.049,-0.405,53.162,-57.129,194.458
0.307,-0.83,-0.325,75.989,-66.772,228.882
0.502,-0.382,-0.15,85.327,-69.519,236.206
0.734,0.193,-0.015,95.703,-67.139,239.197
0.937,0.876,0.19,77.942,-41.138,221.741
1.029,1.203,0.189,52.185,-22.644,170.166
1.072,1.672,-0.122,-5.554,12.756,130.859
1.055,1.802,-0.429,-37.72,29.236,19.592
1.068,1.489,-0.458,-37.354,15.137,-107.483
1.053,1.239,-0.378,-32.959,7.446,-157.959
1.007,0.67,-0.251,-34.18,5.615,-218.689
0.889,0.12,-0.175,-48.401,15.381,-225.159
0.829,-0.139,-0.164,-59.204,24.231,-212.708
0.573,-0.713,-0.198,-81.299,44.617,-170.288
0.344,-1.276,-0.419,-91.309,53.406,-124.207
0.252,-1.801,-0.675,-71.594,46.204,-68.787
0.279,-1.91,-0.747,-50.232,31.982,-35.583
0.326,-1.861,-0.684,1.343,-0.916,48.096
0.352,-1.478,-0.502,51.147,-30.823,129.272
0.373,-1.218,-0.418,83.191,-47.18,182.129
0.496,-0.739,-0.229,89.478,-51.208,194.031
0.655,-0.104,-0.15,89.539,-56.091,191.956
0.858,0.379,-0.073,86.609,-38.33,173.34
0.976,0.631,-0.088,81.482,-29.053,155.273
1.142,1.065,-0.168,59.265,-12.146,114.746
1.221,1.428,-0.229,28.015,0.305,57.8
1.254,1.525,-0.269,9.033,6.592,-8.728
1.209,1.486,-0.346,-20.447,18.433,-54.077
1.111,1.189,-0.357,-37.415,22.278,-132.812
1.044,0.988,-0.351,-43.884,18.616,-195.007
0.917,0.475,-0.311,-45.349,18.433,-216.309
0.741,-0.044,-0.31,-47.119,22.705,-232.544
0.603,-0.729,-0.295,-51.27,38.696,-202.82
0.505,-1.019,-0.356,-57.434,43.335,-176.636
0.347,-1.571,-0.556,-62.5,47.791,-108.215
0.324,-1.878,-0.724,-44.189,34.607,-26.672
0.325,-1.745,-0.716,-7.996,4.578,60.791
0.367,-1.589,-0.629,12.268,-10.559,100.525
0.446,-1.155,-0.482,43.762,-32.166,164.001
0.596,-0.673,-0.36,66.345,-43.823,198.914
0.708,-0.446,-0.286,75.745,-46.875,206.909
0.824,0.082,-0.2,85.754,-46.143,208.435
0.99,0.629,-0.08,83.008,-32.349,189.819
1.05,0.901,-0.052,70.557,-22.888,172.607
1.138,1.378,-0.116,25.33,1.465,120.178
1.136,1.601,-0.312,-15.991,20.935,42.48
1.117,1.601,-0.366,-26.367,24.353,-5.066
1.056,1.381,-0.388,-36.499,22.949,-105.53
0.959,0.919,-0.412,-40.588,15.381,-186.401
0.899,0.662,-0.401,-37.903,11.597,-214.844
0.745,0.122,-0.321,-34.851,4.395,-244.08
0.632,-0.553,-0.2,-41.199,10.559,-230.164
0.536,-0.869,-0.202,-62.317,28.87,-173.95
0.364,-1.458,-0.379,-69.702,36.316,-137.878
0.324,-1.855,-0.6,-58.411,38.879,-52.063
0.273,-1.789,-0.705,-26.794,19.958,40.466
0.307,-1.659,-0.661,-9.216,6.836,83.923
0.405,-1.244,-0.548,25.818,-20.813,148.193
0.554,-0.769,-0.399,55.908,-39.49,183.533
0.639,-0.529,-0.326,67.322,-45.044,192.81
0.876,-0.047,-0.154,79.956,-40.405,198.547
0.972,0.565,-0.119,70.374,-27.161,187.317
1.048,0.802,-0.098,58.777,-13.733,173.584
1.142,1.282,-0.233,23.865,7.69,130.005
1.123,1.586,-0.428,-6.165,20.447,60.486
1.1,1.635,-0.493,-15.747,19.897,14.099
1.041,1.462,-0.491,-26.245,11.353,-86.975
1,1.269,-0.461,-31.006,-0.793,-177.979
0.904,0.732,-0.373,-34.973,-3.967,-211.121
0.755,0.122,-0.293,-34.79,-5.066,-246.216
0.68,-0.508,-0.222,-34.363,4.272,-234.131
0.629,-0.77,-0.213,-40.833,14.832,-207.214
0.528,-1.144,-0.323,-60.791,28.198,-137.817
0.483,-1.312,-0.422,-60.73,29.053,-62.683
0.465,-1.324,-0.436,-46.692,18.86,1.343
0.45,-1.161,-0.452,-35.522,9.46,23.499
0.487,-0.949,-0.394,-7.935,-6.897,49.927
0.522,-0.833,-0.366,6.104,-13.428,56.58
0.631,-0.609,-0.291,30.029,-21.973,62.927
0.727,-0.386,-0.257,39.795,-22.522,67.139
0.757,-0.291,-0.242,40.466,-22.583,66.895
0.798,-0.14,-0.217,40.039,-20.081,62.927
0.769,-0.054,-0.247,39.368,-16.907,51.636
0.7,-0.035,-0.256,41.504,-15.564,41.077
0.847,0.001,-0.297,46.936,-17.822,10.376
0.84,-0.017,-0.333,43.945,-22.095,-2.502
0.846,-0.052,-0.351,39.246,-25.574,-6.836
0.857,-0.094,-0.377,30.151,-26.855,-10.62
0.862,-0.094,-0.401,24.17,-29.175,-11.047
0.873,-0.098,-0.414,21.667,-33.63,-13.977
0.906,-0.115,-0.426,20.386,-35.4,-15.32
0.946,-0.134,-0.437,18.25,-38.147,-17.517
0.988,-0.142,-0.431,14.221,-39.673,-16.785
1.009,-0.151,-0.402,10.071,-41.87,-13.367
1.06,-0.158,-0.392,8.118,-41.687,-10.254
1.096,-0.16,-0.371,4.883,-38.94,-3.357
1.105,-0.144,-0.359,5.737,-34.302,2.136
1.108,-0.142,-0.354,7.446,-31.86,3.174
1.108,-0.147,-0.323,9.399,-28.809,4.15
1.113,-0.151,-0.3,7.812,-26.184,5.188
1.109,-0.154,-0.284,7.385,-24.658,7.202
1.113,-0.143,-0.233,7.08,-24.658,8.728
1.084,-0.136,-0.193,5.981,-23.804,9.583
1.079,-0.145,-0.131,4.883,-21.606,7.568
1.074,-0.148,-0.111,2.869,-18.311,7.263
1.046,-0.147,-0.123,0.732,-10.803,5.615
1.038,-0.145,-0.141,3.662,-6.592,0.916
1.012,-0.159,-0.146,5.127,-2.014,-1.892
1,-0.161,-0.168,3.906,0.305,-2.441
0.98,-0.165,-0.208,3.723,2.014,-3.174
0.964,-0.169,-0.217,5.371,1.892,-2.747
0.959,-0.152,-0.225,4.761,0.977,-0.549
0.96,-0.146,-0.217,3.662,0.427,0.488
0.96,-0.137,-0.217,0.732,0.793,2.991
0.952,-0.12,-0.234,-0.854,0.488,3.601
0.951,-0.114,-0.229,-0.854,-0.488,2.441
0.134,-2.035,-0.604,-35.339,44.739,1.404
0.117,-1.934,-0.613,-10.071,19.714,117.981
0.133,-1.534,-0.615,1.587,5.859,167.358
0.278,-1.041,-0.559,27.283,-27.771,232.178
0.56,-0.536,-0.326,61.462,-60.608,261.658
0.611,-0.156,-0.206,86.06,-76.721,265.808
0.916,0.667,0.265,85.022,-66.162,255.371
1.107,1.358,0.551,27.649,-12.695,208.191
1.109,1.604,0.054,-45.715,43.03,118.042
1.075,1.83,-0.266,-54.504,62.134,57.251
1.012,1.555,-0.578,-21.301,58.96,-76.477
0.976,1.085,-0.421,4.333,31.006,-184.875
0.792,0.751,-0.339,0.427,19.043,-223.938
0.533,-0.012,-0.245,-17.456,8.789,-276.245
0.352,-0.812,-0.242,-36.194,19.775,-270.874
0.241,-1.228,-0.297,-50.781,31.311,-243.286
0.237,-2.027,-0.595,-82.703,38.391,-144.897
0.33,-2.172,-0.819,-73.303,16.113,-7.263
0.31,-1.7,-0.607,-23.437,-17.944,124.39
0.33,-1.422,-0.515,-9.827,-29.602,171.57
0.497,-0.799,-0.447,12.573,-50.72,220.398
0.795,-0.141,-0.28,56.458,-63.477,227.478
0.987,0.208,-0.077,76.05,-63.171,202.576
1.133,1.062,0.267,65.918,-51.392,174.316
1.303,1.442,0.197,2.686,3.296,98.755
1.313,1.533,-0.07,-23.071,26.733,52.856
1.269,1.403,-0.419,-17.944,42.175,-55.115
1.193,1.055,-0.402,10.559,28.015,-156.677
1.113,0.784,-0.315,12.634,19.897,-193.115
0.826,0.106,-0.206,-5.981,14.282,-236.755
0.605,-0.735,-0.202,-31.311,25.452,-231.689
0.49,-1.19,-0.257,-44.739,36.743,-205.139
0.395,-1.887,-0.533,-60.303,46.265,-120.972
0.323,-2.063,-0.705,-31.555,31.921,-3.784
0.299,-1.741,-0.607,6.226,8.789,112.244
0.287,-1.481,-0.563,18.86,-3.418,156.067
0.501,-0.914,-0.455,45.288,-28.259,207.581
0.657,-0.337,-0.315,72.815,-50.354,228.21
0.75,0.011,-0.138,83.069,-54.26,228.943
0.995,0.839,0.19,68.054,-38.208,206.97
1.162,1.412,0.164,13.794,10.315,157.41
1.163,1.614,0.007,-13.611,33.386,120.667
1.147,1.733,-0.456,-38.025,53.528,15.503
1.138,1.62,-0.588,-28.625,50.415,-42.786
1.064,1.22,-0.523,-1.892,31.128,-146.179
0.904,0.651,-0.38,-9.644,13.855,-209.9
0.797,0.296,-0.333,-36.926,8.362,-231.934
0.566,-0.546,-0.273,-45.959,10.315,-225.098
0.393,-1.33,-0.344,-68.42,20.874,-175.72
0.403,-1.902,-0.535,-69.702,23.376,-88.501
0.407,-2.022,-0.585,-58.655,19.409,-32.959
0.38,-1.815,-0.581,-23.132,1.648,72.205
0.447,-1.323,-0.504,13.428,-19.165,151.001
0.537,-1.068,-0.453,30.273,-26.794,194.031
0.649,-0.496,-0.339,61.951,-48.035,203.43
0.818,0.215,-0.104,88.318,-49.377,202.576
0.915,0.639,0.015,87.036,-41.016,171.204
1.078,1.264,0.044,45.776,-8.423,144.165
1.105,1.581,-0.248,-6.165,19.592,64.331
1.12,1.588,-0.409,-17.395,24.353,12.146
1.147,1.391,-0.542,-4.15,16.357,-92.957
1.075,0.986,-0.395,11.169,0.366,-172.424
1.013,0.726,-0.318,6.958,-5.31,-217.651
0.815,0.134,-0.206,-15.991,-7.751,-228.088
0.693,-0.512,-0.126,-38.208,4.272,-212.585
0.556,-1.08,-0.211,-59.448,21.057,-159.424
0.536,-1.28,-0.291,-62.5,25.574,-126.953
0.509,-1.444,-0.412,-49.133,26.794,-52.185
0.485,-1.339,-0.457,-26.184,14.893,16.541
0.487,-1.218,-0.433,0.427,-2.869,65.613
0.517,-0.937,-0.386,14.221,-11.475,81.36
0.597,-0.652,-0.326,40.527,-28.87,99.304
0.663,-0.38,-0.247,64.27,-38.025,106.201
0.667,-0.272,-0.227,72.693,-40.71,105.652
0.637,-0.089,-0.172,80.505,-50.964,80.078
0.643,0.052,-0.147,84.656,-56.763,56.03
0.649,0.082,-0.141,88.623,-50.476,29.236
0.653,0.073,-0.138,89.661,-49.377,14.404
0.711,0.044,-0.166,86.853,-52.612,-12.451
0.798,0.015,-0.168,80.566,-58.411,-30.579
0.848,0.011,-0.168,76.111,-57.617,-35.461
0.929,0.012,-0.175,63.782,-55.725,-34.363
0.984,0.011,-0.194,48.279,-51.758,-30.212
1.013,0.007,-0.204,32.715,-50.476,-24.78
1.078,0.016,-0.208,24.719,-52.307,-21.545
1.13,0.023,-0.213,12.878,-50.537,-15.625
1.169,0.02,-0.174,5.127,-47.546,-11.719
1.192,0.009,-0.164,2.075,-46.326,-15.32
1.271,-0.052,-0.194,0.61,-45.593,-18.616
1.303,-0.133,-0.22,5.005,-45.288,-21.301
1.279,-0.15,-0.208,10.498,-43.335,-15.198
1.258,-0.149,-0.188,12.024,-41.26,-10.071
1.245,-0.141,-0.127,13.794,-35.278,1.77
1.244,-0.085,-0.045,13.062,-25.879,13.184
1.224,-0.061,-0.016,10.803,-18.921,18.066
1.171,-0.035,0.03,4.395,-16.846,17.09
1.144,-0.049,0.053,0.244,-13.672,10.254
1.108,-0.075,0.054,-0.427,-11.169,2.502
1.099,-0.082,0.052,0.244,-8.545,-1.221
1.078,-0.099,0.026,0.244,-1.648,-5.31
1.042,-0.111,-0.031,-0.366,4.272,-8.606
1.007,-0.155,-0.075,-0.793,4.761,-11.414
0.995,-0.164,-0.094,-1.526,4.578,-11.23
0.976,-0.182,-0.113,-1.465,4.395,-9.216
0.972,-0.196,-0.098,0.305,3.906,-5.188
0.965,-0.192,-0.097,2.075,4.272,0.977
0.969,-0.171,-0.076,3.418,3.784,3.296
0.983,-0.12,-0.046,3.174,3.662,7.263
0.987,-0.098,-0.034,0.183,4.639,7.996
0.981,-0.097,-0.037,-1.648,5.249,6.775
0.979,-0.089,-0.059,-4.089,6.836,2.991
0.974,-0.089,-0.074,-2.808,6.714,-2.869
0.985,-0.099,-0.085,-2.014,6.653,-5.31
0.972,-0.119,-0.09,-1.465,7.629,-9.888
0.99,-0.143,-0.098,-2.136,9.644,-12.695
0.989,-0.154,-0.105,-2.869,10.925,-12.268
0.989,-0.176,-0.119,-4.272,11.719,-10.132
1,-0.177,-0.113,-5.981,11.108,-6.409
1.001,-0.175,-0.11,-7.324,10.437,-4.333
1.137,1.773,-0.024,-6.348,24.048,106.689
1.075,1.683,-0.407,-39.795,54.626,-7.324
1.072,1.502,-0.459,-33.691,53.101,-69.58
0.998,1.097,-0.418,-22.217,37.537,-169.495
0.87,0.621,-0.338,-33.936,24.414,-231.445
0.772,0.359,-0.319,-42.908,20.996,-250.732
0.569,-0.174,-0.288,-51.147,20.386,-269.714
0.384,-0.905,-0.251,-57.739,32.471,-250.183
0.273,-1.516,-0.368,-77.637,45.776,-189.941
0.259,-1.802,-0.478,-84.229,50.476,-143.921
0.279,-2.068,-0.719,-78.308,43.091,-28.748
0.305,-1.84,-0.712,-32.898,12.085,88.684
0.296,-1.342,-0.526,11.902,-16.235,175.415
0.35,-1.095,-0.473,25.696,-26.55,200.562
0.504,-0.62,-0.388,54.138,-40.71,227.539
0.737,-0.203,-0.252,85.083,-48.706,234.802
0.798,0.127,-0.222,97.778,-50.903,232.544
0.971,0.778,0.069,105.774,-40.71,223.511
1.047,1.401,0.236,50.354,-1.16,177.551
1.068,1.618,0.098,6.165,24.536,140.564
0.995,1.761,-0.344,-48.523,61.157,37.903
0.948,1.453,-0.627,-41.016,56.458,-91.919
0.894,1.231,-0.609,-25.574,44.128,-150.818
0.766,0.721,-0.49,-11.658,21.606,-235.962
0.622,0.15,-0.427,-20.569,10.498,-275.33
0.531,-0.167,-0.398,-28.137,8.972,-272.278
0.379,-0.816,-0.388,-46.997,13.367,-254.15
0.323,-1.427,-0.477,-72.815,22.156,-187.866
0.404,-1.92,-0.705,-85.815,25.208,-78.308
0.456,-1.969,-0.8,-54.321,6.042,52.856
0.464,-1.574,-0.692,-26.489,-9.827,110.718
0.519,-1.053,-0.498,6.287,-30.518,194.946
0.597,-0.787,-0.434,26.978,-43.091,234.07
0.863,-0.305,-0.361,43.64,-45.593,241.394
0.927,0.422,-0.153,68.726,-52.368,231.628
0.997,0.769,0.021,49.438,-24.475,178.284
1.085,1.247,0.15,14.771,-1.343,139.221
1.073,1.392,-0.297,-41.016,36.377,38.818
1.062,1.268,-0.48,-42.847,40.588,-21.179
1.04,0.93,-0.607,-11.963,24.048,-130.249
0.932,0.507,-0.477,13.062,2.808,-203.674
0.845,0.272,-0.417,14.832,-3.845,-227.417
0.677,-0.229,-0.362,13.977,-5.859,-251.099
0.59,-0.862,-0.3,6.226,3.174,-230.53
0.566,-1.126,-0.339,-5.615,10.376,-200.073
0.552,-1.543,-0.53,-33.63,23.315,-104.248
0.549,-1.609,-0.654,-39.124,20.142,18.494
0.488,-1.302,-0.621,-25.757,6.348,127.991
0.5,-1.116,-0.595,-16.663,-1.465,165.405
0.589,-0.683,-0.542,7.935,-19.104,205.017
0.787,-0.268,-0.434,42.786,-33.936,211.365
0.91,-0.056,-0.351,71.472,-43.213,201.172
0.993,0.485,-0.161,77.698,-40.344,189.819
1.079,0.972,0.109,53.955,-18.616,148.56
1.08,1.167,0.104,22.156,0.061,117.493
1.041,1.286,-0.208,-33.569,39.551,36.743
0.966,1.075,-0.508,-37.354,47.729,-65.552
0.943,0.909,-0.57,-23.743,41.504,-115.051
0.832,0.527,-0.557,2.686,22.156,-192.566
0.688,0.082,-0.489,13.489,4.639,-240.906
0.614,-0.145,-0.46,15.259,-1.038,-253.601
0.583,-0.694,-0.349,8.423,-3.113,-243.896
0.581,-1.183,-0.33,-24.109,8.606,-174.255
0.583,-1.45,-0.496,-60.486,20.447,-67.017
0.565,-1.47,-0.57,-63.354,21.545,-10.437
0.498,-1.219,-0.623,-39.795,12.085,87.036
0.488,-0.888,-0.568,-12.146,-4.395,141.235
0.509,-0.722,-0.553,-1.221,-15.808,151.978
0.609,-0.437,-0.495,26.123,-38.94,150.879
0.719,-0.18,-0.371,53.101,-55.298,133.972
0.768,0.026,-0.229,69.397,-64.026,110.413
0.781,0.11,-0.182,72.571,-63.965,80.811
0.793,0.18,-0.129,70.068,-58.655,64.514
0.781,0.187,-0.19,63.904,-53.711,31.738
0.757,0.172,-0.219,62.561,-48.584,0.977
0.759,0.12,-0.267,62.744,-48.157,-12.024
0.791,0.064,-0.287,63.904,-53.955,-34.851
0.864,0.028,-0.218,62.805,-59.204,-44.495
0.896,0.013,-0.181,57.19,-58.167,-43.274
0.935,0.004,-0.144,38.696,-51.636,-36.682
0.932,-0.039,-0.199,21.423,-47.974,-32.654
0.949,-0.043,-0.237,17.639,-46.997,-32.532
0.991,-0.044,-0.256,19.409,-49.866,-33.02
1.046,-0.055,-0.224,20.874,-56.702,-33.813
1.119,-0.078,-0.178,16.663,-58.899,-33.325
1.156,-0.098,-0.159,13,-56.885,-31.555
1.226,-0.132,-0.144,8.423,-47.241,-26.001
1.283,-0.157,-0.155,9.827,-34.302,-17.639
1.309,-0.134,-0.158,13.55,-24.292,-5.981
1.311,-0.102,-0.139,14.648,-20.935,-0.793
1.28,-0.068,-0.067,13.306,-16.724,7.751
1.229,-0.039,-0.001,9.583,-12.512,10.01
1.203,-0.031,0.024,7.69,-10.498,6.165
1.148,-0.045,0.072,5.676,-4.395,3.052
1.091,-0.076,0.024,1.099,2.625,-3.845
1.009,-0.093,-0.093,-2.625,4.761,-9.827
0.989,-0.105,-0.124,-0.671,4.944,-14.16
0.954,-0.159,-0.138,6.165,5.676,-21.545
0.941,-0.188,-0.118,7.996,8.911,-21.362
0.919,-0.21,-0.132,4.15,9.338,-14.893
0.919,-0.218,-0.135,2.197,9.216,-10.62
0.912,-0.208,-0.148,-0.183,9.521,-0.427
0.922,-0.169,-0.151,0,7.08,7.263
0.927,-0.138,-0.145,-0.061,5.31,8.789
0.943,-0.111,-0.139,-0.671,1.465,6.958
0.96,-0.112,-0.133,-0.977,-1.648,2.014
0.966,-0.122,-0.127,-0.488,-2.136,-0.122
0.985,-0.135,-0.112,0.61,0,-1.709
0.988,-0.124,-0.128,0.366,2.563,-1.831
0.983,-0.124,-0.152,-0.488,5.188,-2.258
0.988,-0.124,-0.16,-0.793,6.042,-2.625
0.992,-0.145,-0.156,-1.648,6.348,-2.747
1.003,-0.154,-0.142,-3.296,5.493,-1.404
1.01,-0.151,-0.129,-3.906,5.188,0.488
1.013,-0.146,-0.115,-5.371,5.31,1.221
1.015,-0.144,-0.103,-5.188,7.141,0.977
1.018,-0.141,-0.1,-4.822,10.132,0.305
1.013,-0.137,-0.116,-4.761,11.169,-0.244
1.009,-0.141,-0.129,-4.639,11.902,-2.136
0.528,-1.636,-0.703,-47.974,50.171,1.343
0.485,-1.61,-0.702,-36.621,26.855,127.258
0.419,-1.283,-0.594,-26.672,18.799,181.396
0.51,-0.84,-0.46,-10.925,8.789,248.718
0.577,-0.277,-0.457,2.38,-4.333,264.16
0.665,-0.016,-0.453,16.296,-8.179,250.183
0.785,0.475,-0.288,48.828,-12.939,235.596
0.825,1.016,-0.111,52.673,-10.376,187.805
0.827,1.245,-0.071,18.372,12.207,106.934
0.794,1.513,-0.201,-4.272,25.757,53.223
0.744,1.303,-0.397,-30.579,40.039,-67.871
0.708,1.122,-0.468,-29.541,37.903,-128.662
0.643,0.623,-0.49,-7.263,25.33,-231.445
0.536,0.112,-0.468,23.499,13.916,-299.744
0.482,-0.193,-0.361,40.039,7.996,-327.759
0.444,-0.853,-0.317,33.325,7.751,-315.857
0.591,-1.6,-0.39,-22.949,16.663,-213.379
0.762,-1.911,-0.605,-83.801,12.268,-35.522
0.661,-1.801,-0.514,-74.707,2.136,134.46
0.533,-1.381,-0.428,-64.453,5.432,195.984
0.613,-0.892,-0.436,-51.331,12.878,259.155
0.638,-0.314,-0.553,-16.296,3.235,261.536
0.735,-0.08,-0.552,9.338,-3.479,248.169
0.856,0.389,-0.453,57.19,-17.395,207.825
0.893,0.83,-0.285,73.486,-22.034,152.1
0.932,1.046,-0.211,64.331,-17.09,116.943
0.922,1.255,-0.212,19.409,4.761,28.015
0.907,1.223,-0.386,-12.695,25.085,-73.486
0.858,0.972,-0.462,-12.39,27.344,-125.305
0.817,0.568,-0.507,11.292,20.874,-211.365
0.786,0.347,-0.501,35.339,8.118,-262.695
0.696,-0.125,-0.427,39.734,3.662,-274.78
0.618,-0.679,-0.307,20.386,1.221,-260.925
0.583,-0.953,-0.308,-37.72,13.855,-182.617
0.628,-1.552,-0.452,-69.824,20.935,-120.544
0.632,-1.796,-0.619,-89.355,18.799,21.912
0.512,-1.48,-0.555,-53.04,9.949,147.339
0.507,-1.261,-0.48,-37.354,7.996,191.956
0.59,-0.789,-0.466,-19.348,3.723,241.577
0.66,-0.276,-0.516,11.047,-5.981,248.84
0.746,-0.019,-0.507,34.851,-11.963,240.784
0.877,0.549,-0.334,76.233,-25.818,212.341
0.97,1.204,-0.069,74.219,-22.888,153.687
0.999,1.44,0.031,52.368,-9.033,109.558
0.982,1.552,-0.216,-7.385,25.574,0.366
0.953,1.253,-0.503,-10.864,34.485,-120.911
0.938,1.026,-0.534,4.822,29.053,-173.279
0.851,0.489,-0.403,23.987,14.465,-240.845
0.721,-0.123,-0.305,0.366,10.376,-257.385
0.648,-0.442,-0.308,-47.607,18.433,-223.206
0.503,-0.989,-0.36,-72.571,26.245,-189.209
0.47,-1.625,-0.589,-103.088,37.964,-93.506
0.541,-1.725,-0.797,-69.702,22.217,16.479
0.518,-1.551,-0.739,-33.997,8.667,70.313
0.545,-1.115,-0.499,8.728,-11.597,156.067
0.645,-0.619,-0.438,14.221,-25.208,199.646
0.759,-0.407,-0.4,22.217,-29.541,207.397
0.838,0.115,-0.336,48.828,-33.569,205.017
0.948,0.647,-0.156,68.298,-24.292,174.438
0.978,0.903,-0.096,61.829,-15.747,146.606
1.058,1.234,-0.161,22.583,8.728,68.42
1.069,1.316,-0.267,-11.475,24.658,-27.344
1.057,1.219,-0.412,-10.437,25.269,-78.186
0.99,0.888,-0.477,-2.869,17.517,-169.373
0.885,0.432,-0.421,8.85,6.836,-233.337
0.778,0.168,-0.391,8.484,2.136,-252.686
0.671,-0.405,-0.333,-3.662,2.808,-257.996
0.539,-0.95,-0.353,-32.227,12.451,-213.074
0.512,-1.249,-0.405,-49.866,19.653,-172.302
0.499,-1.633,-0.566,-72.998,26.123,-67.993
0.481,-1.626,-0.633,-52.246,16.602,44.495
0.461,-1.475,-0.59,-20.386,1.16,135.986
0.501,-1.073,-0.517,-9.155,-7.751,165.833
0.622,-0.632,-0.45,18.433,-27.954,194.519
0.832,-0.2,-0.281,49.927,-38.147,196.167
0.786,0.114,-0.191,58.35,-41.199,188.049
0.864,0.662,0.006,50.842,-27.222,142.883
0.901,0.874,0.011,32.715,-0.549,60.913
0.909,1.02,-0.247,-2.502,10.925,10.925
0.891,0.848,-0.481,6.897,10.62,-91.858
0.814,0.562,-0.527,42.542,-11.475,-176.086
0.769,0.386,-0.471,56.458,-22.522,-205.933
0.682,-0.044,-0.294,55.115,-37.048,-233.704
0.637,-0.477,-0.203,19.592,-30.09,-208.374
0.617,-0.639,-0.221,-5.493,-20.02,-177.307
0.579,-0.905,-0.325,-50.11,-3.601,-100.403
0.552,-0.973,-0.489,-68.909,-0.488,-26.184
0.536,-0.877,-0.548,-53.284,-11.292,26.733
0.543,-0.813,-0.547,-39.49,-21.729,43.091
0.617,-0.697,-0.496,-15.015,-50.232,61.157
0.744,-0.562,-0.372,1.709,-74.158,69.092
0.782,-0.489,-0.299,11.658,-84.961,69.336
0.856,-0.376,-0.156,14.648,-83.679,65.674
0.95,-0.265,-0.106,19.165,-76.05,52.368
0.999,-0.197,-0.111,26.062,-64.087,38.086
1.021,-0.17,-0.129,30.701,-49.622,19.531
1.079,-0.14,-0.154,39.246,-42.969,9.583
1.135,-0.146,-0.171,37.231,-33.691,-4.456
1.19,-0.18,-0.233,24.597,-30.701,-10.803
1.205,-0.199,-0.257,13.55,-32.654,-10.193
1.224,-0.241,-0.253,11.597,-34.058,-8.057
1.233,-0.239,-0.191,12.512,-34.79,-1.465
1.232,-0.203,-0.124,12.207,-31.494,8.606
1.207,-0.15,-0.076,8.057,-24.902,17.822
1.18,-0.122,-0.063,6.47,-20.935,20.386
1.12,-0.087,-0.024,4.883,-15.808,18.738
1.074,-0.077,0.004,3.052,-8.484,9.888
1.039,-0.092,-0.018,1.282,-4.15,-11.169
0.984,-0.142,-0.098,0,1.282,-8.118
0.961,-0.203,-0.132,5.066,2.319,-19.592
0.96,-0.227,-0.134,8.85,3.296,-23.926
0.945,-0.255,-0.149,7.812,4.272,-23.376
0.935,-0.293,-0.162,3.601,3.723,-20.203
0.942,-0.315,-0.155,1.343,1.221,-15.259
0.948,-0.342,-0.151,0.366,1.16,-11.047
0.961,-0.35,-0.136,-3.784,1.099,-1.587
0.961,-0.325,-0.143,-7.385,-0.916,7.202
0.956,-0.307,-0.14,-7.019,-0.977,9.338
0.976,-0.276,-0.115,-4.517,-1.038,8.545
0.343,-1.915,-0.759,-46.021,75.5,27.1
0.278,-1.877,-0.791,-41.992,45.471,177.917
0.191,-1.456,-0.65,-30.884,31.555,236.206
0.303,-0.92,-0.56,-9.583,5.798,304.321
0.503,-0.33,-0.446,21.423,-19.592,318.176
0.614,0.033,-0.36,56.519,-32.898,298.523
0.858,0.81,0.026,61.951,-30.762,276.428
0.969,1.519,0.267,22.522,3.235,204.102
0.943,1.747,0.098,-11.23,58.838,82.642
0.864,1.772,-0.425,-39.001,58.716,3.479
0.847,1.36,-0.576,-4.7,48.462,-148.743
0.806,1.085,-0.538,9.888,35.4,-255.615
0.665,0.458,-0.407,16.113,12.695,-290.405
0.411,-0.203,-0.375,4.456,4.333,-330.75
0.331,-0.635,-0.327,1.282,11.902,-314.758
0.331,-1.529,-0.376,-21.912,20.203,-268.433
0.539,-2.164,-0.664,-64.209,29.419,-108.826
0.461,-2.031,-0.71,-59.265,7.751,68.726
0.418,-1.775,-0.598,-42.053,-1.038,145.569
0.453,-1.143,-0.512,-20.813,-11.902,236.389
0.685,-0.62,-0.443,14.038,-28.076,259.766
0.712,-0.278,-0.394,36.011,-36.926,254.456
0.895,0.378,-0.217,71.838,-37.781,242.981
0.967,1.079,0.042,60.547,-23.56,193.665
1.001,1.331,0.067,31.128,-5.737,152.649
0.97,1.522,-0.28,-29.541,30.457,42.358
0.944,1.271,-0.557,-25.574,36.621,-91.492
0.914,1.052,-0.593,11.963,18.494,-202.515
0.83,0.535,-0.471,25.146,8.972,-241.76
0.676,-0.053,-0.347,31.067,-0.916,-288.025
0.546,-0.34,-0.319,20.691,5.31,-284.79
0.505,-1.163,-0.258,3.54,15.32,-254.028
0.532,-1.745,-0.498,-45.715,31.982,-139.038
0.579,-1.924,-0.653,-60.425,23.01,10.742
0.504,-1.783,-0.673,-46.936,11.292,84.106
0.47,-1.313,-0.499,-23.621,-3.662,197.388
0.544,-0.765,-0.469,-1.404,-10.742,248.901
0.645,-0.509,-0.431,16.541,-13.672,257.263
0.698,0.096,-0.385,54.016,-21.667,252.869
0.842,0.719,-0.195,74.463,-21.851,220.398
0.893,1.058,-0.077,66.65,-18.005,190.552
0.963,1.545,-0.148,12.329,4.761,99.365
0.963,1.464,-0.431,-25.452,22.705,-24.658
0.961,1.3,-0.513,-23.193,20.02,-90.698
0.941,0.837,-0.502,4.028,4.395,-200.378
0.846,0.308,-0.351,25.391,-6.775,-263.55
0.762,0.058,-0.311,27.893,-8.24,-279.297
0.66,-0.6,-0.218,19.897,-0.183,-279.663
0.601,-1.228,-0.259,-17.517,20.508,-211.731
0.584,-1.512,-0.373,-43.213,31.25,-90.332
0.58,-1.819,-0.632,-68.481,32.104,-23.437
0.495,-1.616,-0.62,-42.664,16.541,102.661
0.492,-1.428,-0.56,-11.78,3.296,188.904
0.552,-0.95,-0.516,-1.038,-2.869,214.294
0.701,-0.458,-0.456,31.86,-12.817,237.671
0.781,0.106,-0.378,58.533,-24.109,234.802
0.844,0.404,-0.295,65.308,-24.597,223.816
0.958,0.976,-0.099,50.11,-13.062,179.199
0.976,1.371,-0.207,2.014,13.184,101.99
0.987,1.442,-0.334,-14.587,23.193,50.659
0.986,1.294,-0.502,-18.372,24.902,-62.927
0.961,1.152,-0.516,-11.719,3.235,-164.001
0.902,0.718,-0.437,-0.183,5.31,-203.064
0.761,0.218,-0.382,0,-2.991,-254.028
0.683,-0.059,-0.345,-0.916,-5.188,-273.132
0.611,-0.682,-0.276,-3.113,0.671,-261.353
0.558,-1.232,-0.318,-27.344,16.479,-195.312
0.556,-1.675,-0.47,-55.847,24.658,-83.679
0.558,-1.772,-0.542,-60.486,24.292,-19.165
0.49,-1.601,-0.524,-42.053,10.62,99.915
0.501,-1.238,-0.444,-18.433,0.122,185.974
0.52,-1.005,-0.426,6.958,-6.775,230.957
0.616,-0.503,-0.432,23.132,-9.521,238.892
0.722,-0.027,-0.38,55.725,-19.165,232.117
0.741,0.556,-0.269,72.571,-23.926,201.721
0.872,0.804,-0.169,69.336,-20.752,176.086
0.913,1.259,-0.148,34.79,-4.7,101.868
0.927,1.359,-0.23,0.61,12.39,0.061
0.935,1.254,-0.413,-5.31,14.465,-54.016
0.913,0.922,-0.477,5.371,5.249,-153.259
0.903,0.707,-0.436,14.893,-0.61,-190.674
0.806,0.249,-0.349,17.944,-9.155,-234.131
0.711,-0.271,-0.262,5.188,-9.399,-242.798
0.705,-0.524,-0.226,-4.761,-4.089,-203.186
0.631,-0.894,-0.278,-37.109,11.475,-169.434
0.617,-1.119,-0.43,-55.176,19.165,-92.529
0.576,-1.095,-0.496,-43.274,14.099,-14.038
0.555,-1.004,-0.489,-33.264,8.057,16.724
0.549,-0.8,-0.429,-18.372,-9.277,55.481
0.594,-0.615,-0.383,-7.568,-27.893,68.237
0.62,-0.532,-0.356,6.958,-41.321,64.697
0.7,-0.388,-0.312,14.954,-45.593,59.265
0.773,-0.261,-0.275,27.405,-51.697,45.837
0.809,-0.214,-0.267,35.522,-54.565,29.724
0.847,-0.15,-0.272,37.964,-54.382,21.24
0.915,-0.135,-0.287,40.039,-52.185,3.54
1.003,-0.108,-0.269,36.499,-49.438,-7.324
1.033,-0.094,-0.26,32.837,-47.058,-9.277
1.078,-0.085,-0.239,23.926,-39.734,-10.864
1.105,-0.093,-0.251,11.78,-30.151,-10.986
1.105,-0.13,-0.293,5.31,-23.01,-14.648
1.104,-0.156,-0.329,5.31,-20.447,-17.883
1.135,-0.229,-0.356,11.719,-19.714,-22.583
1.152,-0.255,-0.357,16.113,-19.836,-16.907
1.151,-0.25,-0.337,14.832,-21.24,-5.554
1.147,-0.242,-0.312,12.817,-22.461,6.958
1.128,-0.192,-0.251,7.935,-22.278,12.817
1.088,-0.141,-0.215,3.723,-19.958,18.799
1.052,-0.108,-0.162,3.723,-17.761,16.357
1.032,-0.097,-0.13,3.784,-15.381,13.489
0.99,-0.1,-0.124,2.197,-7.446,4.7
0.975,-0.151,-0.145,1.892,-1.465,-5.615
0.95,-0.199,-0.181,2.136,3.052,-10.681
0.939,-0.22,-0.205,2.014,4.089,-12.085
0.919,-0.257,-0.235,2.014,3.54,-13.672
0.909,-0.284,-0.249,1.953,1.831,-12.695
0.907,-0.294,-0.277,2.319,-1.282,-9.705
0.923,-0.309,-0.256,2.747,-3.479,-7.202
0.931,-0.294,-0.216,0.366,-4.395,0.061
0.286,-1.928,-0.579,-65.186,50.049,20.02
0.242,-1.861,-0.601,-55.786,40.405,148.865
0.207,-1.51,-0.516,-29.846,18.25,202.393
0.297,-1.024,-0.477,-15.015,-2.075,269.897
0.587,-0.527,-0.4,10.254,-21.851,291.626
0.596,-0.207,-0.347,27.954,-34.18,290.955
0.858,0.497,-0.081,60.913,-41.443,264.893
0.995,1.205,0.248,44.434,-19.104,205.139
1.001,1.465,0.192,13.245,5.066,158.813
0.946,1.656,-0.3,-28.381,47.18,30.884
0.909,1.305,-0.541,-4.639,42.419,-119.263
0.885,1.052,-0.517,13.306,16.663,-238.281
0.743,0.439,-0.385,29.602,7.141,-278.748
0.495,-0.289,-0.31,18.982,0.61,-321.838
0.452,-0.796,-0.265,-5.798,11.841,-290.1
0.482,-1.671,-0.354,-26.001,17.822,-237.793
0.552,-2.146,-0.552,-54.993,21.179,-78.979
0.426,-1.909,-0.521,-43.091,10.864,91.492
0.402,-1.678,-0.482,-30.334,4.883,208.13
0.46,-1.125,-0.496,-21.362,-1.892,237.61
0.704,-0.613,-0.426,17.944,-21.179,258.24
0.717,-0.294,-0.323,61.951,-36.56,248.535
0.891,0.327,-0.185,77.515,-36.255,233.459
1.045,0.95,0.038,73.73,-21.667,182.983
1.094,1.229,0.055,54.443,-5.615,147.217
1.105,1.512,-0.195,12.268,30.457,53.101
1.099,1.433,-0.43,4.211,44.617,-61.34
1.052,1.271,-0.461,8.301,42.786,-116.76
0.954,0.821,-0.419,11.78,30.579,-206.116
0.866,0.264,-0.364,5.737,22.156,-261.658
0.632,-0.058,-0.349,1.892,20.02,-279.236
0.484,-0.807,-0.311,-3.906,24.231,-280.884
0.429,-1.537,-0.45,-27.954,39.429,-207.336
0.431,-1.829,-0.629,-42.175,36.377,-72.021
0.365,-2.006,-0.796,-31.189,23.56,2.319
0.3,-1.652,-0.647,-2.563,-10.559,131.348
0.367,-1.193,-0.562,4.883,-36.133,213.074
0.448,-0.933,-0.514,11.719,-46.265,237.183
0.617,-0.397,-0.367,37.048,-59.814,260.254
0.788,0.262,-0.247,62.744,-64.758,258.118
0.891,0.622,-0.122,68.298,-59.509,247.192
1.008,1.314,0.088,44.189,-36.865,193.604
1.067,1.672,-0.104,-3.113,2.502,94.604
1.054,1.692,-0.262,-10.803,16.357,31.372
1.058,1.46,-0.364,5.92,23.621,-99.792
1.037,1.26,-0.338,14.099,18.982,-199.463
0.998,0.739,-0.22,9.521,18.433,-230.53
0.792,0.146,-0.174,-14.16,24.597,-262.695
0.712,-0.218,-0.177,-23.315,28.931,-260.132
0.575,-0.891,-0.241,-36.743,43.457,-241.455
0.472,-1.48,-0.408,-52.979,55.054,-169.922
0.426,-1.888,-0.641,-59.753,51.819,-58.533
0.385,-1.904,-0.708,-55.42,40.222,1.038
0.323,-1.65,-0.685,-33.02,8.484,106.689
0.369,-1.219,-0.585,-1.709,-18.433,172.913
0.439,-0.978,-0.51,29.785,-40.466,204.285
0.586,-0.512,-0.391,43.64,-48.34,210.937
0.744,0.052,-0.269,66.101,-53.345,213.074
0.836,0.366,-0.165,66.162,-42.236,192.078
1.004,0.969,-0.033,52.185,-30.151,170.898
1.079,1.369,-0.099,16.602,-0.732,102.905
1.111,1.48,-0.205,4.883,10.254,0.305
1.118,1.424,-0.355,3.235,19.226,-54.443
1.054,1.093,-0.304,12.024,15.503,-154.907
1.009,0.854,-0.261,4.089,13.428,-226.013
0.838,0.332,-0.238,-4.028,15.32,-247.62
0.713,-0.347,-0.227,-14.587,23.865,-261.047
0.656,-0.621,-0.246,-18.982,31.311,-223.083
0.544,-1.114,-0.357,-37.781,45.715,-187.805
0.504,-1.48,-0.577,-58.716,46.875,-91.98
0.447,-1.502,-0.668,-54.749,28.381,10.376
0.437,-1.393,-0.632,-43.762,12.451,51.697
0.467,-1.099,-0.533,-19.531,-16.418,106.934
0.583,-0.791,-0.419,4.639,-36.987,131.348
0.653,-0.635,-0.357,17.029,-43.274,153.198
0.782,-0.316,-0.213,37.109,-47.424,140.869
0.833,0.001,-0.106,40.283,-42.847,129.333
0.859,0.119,-0.11,37.231,-28.076,99.548
0.874,0.262,-0.127,37.842,-22.095,77.942
0.853,0.299,-0.176,42.603,-14.465,27.1
0.84,0.262,-0.184,45.41,-12.695,2.075
0.846,0.142,-0.229,45.166,-13,-36.377
0.849,0.002,-0.257,41.199,-13.733,-54.81
0.84,-0.045,-0.271,37.231,-13.55,-57.556
0.843,-0.12,-0.323,25.513,-14.099,-54.077
0.86,-0.15,-0.359,15.869,-16.663,-46.082
0.879,-0.155,-0.38,9.949,-21.362,-37.659
0.896,-0.154,-0.38,9.155,-24.17,-34.607
0.971,-0.199,-0.379,10.254,-26.855,-29.419
0.981,-0.14,-0.37,7.507,-28.259,-22.034
1,-0.152,-0.358,0.122,-28.259,-16.113
1.05,-0.166,-0.354,-4.028,-28.137,-12.512
1.078,-0.156,-0.349,-7.385,-27.283,-6.958
1.108,-0.144,-0.323,-3.357,-24.414,-5.981
1.117,-0.146,-0.327,0.732,-19.775,-8.362
1.125,-0.152,-0.33,2.502,-16.907,-11.353
1.126,-0.169,-0.334,4.517,-16.357,-11.597
1.112,-0.193,-0.289,3.845,-16.541,-9.583
1.086,-0.212,-0.253,-0.793,-15.137,-4.944
1.045,-0.216,-0.234,-3.601,-12.878,-3.174
1.032,-0.224,-0.224,-3.357,-11.719,-3.662
1.012,-0.245,-0.211,-2.93,-9.46,-4.822
1.004,-0.268,-0.198,-1.953,-6.897,-4.395
0.985,-0.271,-0.197,-1.343,-3.906,-2.319
0.977,-0.271,-0.194,1.099,-0.977,-1.404
0.955,-0.264,-0.2,1.953,0.732,-0.916
0.945,-0.246,-0.224,4.15,1.892,-1.343
0.944,-0.241,-0.22,6.653,0.916,-2.014
0.941,-0.239,-0.216,5.92,0.305,-1.038
0.932,-0.212,-0.215,3.601,-0.916,0.854
0.945,-0.21,-0.213,4.517,-0.916,0.916
0.948,-0.203,-0.208,3.601,-0.793,1.465
0.947,-0.189,-0.209,0.61,-0.549,2.075
0.965,-0.198,-0.205,-0.122,0.305,0.854
0.968,-0.199,-0.208,-1.038,1.343,0.793
0.974,-0.203,-0.21,-1.953,2.258,0
0.974,-0.214,-0.213,-2.441,3.174,-1.221
0.974,-0.213,-0.214,-1.831,3.601,-2.38
0.972,-0.225,-0.223,-1.465,4.761,-2.502
0.972,-0.225,-0.223,-1.465,4.761,-2.502
